SessionID,SessionDate,SessionDuration,SessionFrequency,RecordID,Timestamp,timeIntervalSince1970,GyroX,GyroY,GyroZ,AccX,AccY,AccZ,MagX,MagY,MagZ,WatchTimestamp,WatchtImeIntervalSince1970,WatchGyroX,WatchGyroY,WatchGyroZ,WatchAccX,WatchAccY,WatchAccZ
0,2023-10-26 02:30:00.1410,00:13,60,0,2023-10-26 02:30:00.1580,1698280200.158241,0.007148456759750843,-0.0070405988954007626,-0.0010516822803765535,0.000274658203125,-0.070281982421875,-1.00103759765625,-21.330703735351562,31.6143798828125,-231.6958770751953,2023-10-26 02:30:00.0990,1698280200.099294,-0.002203030977398157,-0.001479180995374918,-0.001260701334103942,-0.1082150861620903,3.0515482649207115e-05,-0.9969329833984375,
0,2023-10-26 02:30:00.1410,00:13,60,0,2023-10-26 02:30:00.1810,1698280200.180798,0.007334345486015081,-0.006892793346196413,0.0004743089957628399,0.0004119873046875,-0.071746826171875,-1.0012664794921875,-21.204132080078125,31.789108276367188,-231.6290740966797,2023-10-26 02:30:00.1160,1698280200.1156669,0.0038497350178658962,0.004150541964918375,-0.0002769825514405966,-0.1087491437792778,0.0019226053263992071,-0.9957123398780823,
0,2023-10-26 02:30:00.1410,00:13,60,0,2023-10-26 02:30:00.1980,1698280200.198413,0.008528773672878742,-0.004065847955644131,0.00010572749306447804,-0.000457763671875,-0.071136474609375,-1.00048828125,-21.184036254882812,31.599807739257812,-231.6454620361328,2023-10-26 02:30:00.1650,1698280200.16497,-0.004006457049399614,0.002534935250878334,-0.0009092702530324459,-0.1109158918261528,-0.000686647545080632,-0.9981842041015625,
0,2023-10-26 02:30:00.1410,00:13,60,0,2023-10-26 02:30:00.2160,1698280200.215969,0.008528773672878742,-0.004065847955644131,0.00010572749306447804,0.0003814697265625,-0.0720367431640625,-1.001922607421875,-21.254562377929688,31.5059814453125,-231.55271911621094,2023-10-26 02:30:00.1720,1698280200.1718512,-0.003478285390883684,0.0050928350538015366,-0.00045802444219589233,-0.1091153621673584,0.0009460428263992071,-0.9929351806640625,
0,2023-10-26 02:30:00.1410,00:13,60,0,2023-10-26 02:30:00.2340,1698280200.233612,0.008596950210630894,-0.004023237619549036,-0.0005211806274019182,0.000244140625,-0.0706939697265625,-1.001007080078125,-21.254562377929688,31.5059814453125,-231.55271911621094,2023-10-26 02:30:00.2010,1698280200.2013888,-0.0005445473361760378,0.003959393594413996,-0.001120885368436575,-0.1072843000292778,-0.0002899190876632929,-0.9958038330078125,
0,2023-10-26 02:30:00.1410,00:13,60,0,2023-10-26 02:30:00.2500,1698280200.250029,0.010512029752135277,-0.005572930909693241,-0.00013076121103949845,-0.0008087158203125,-0.0710296630859375,-0.999969482421875,-21.183273315429688,31.335205078125,-231.9125518798828,2023-10-26 02:30:00.2310,1698280200.231114,0.0030268847476691008,-0.008088082075119019,0.0006374404765665531,-0.1092374250292778,0.0014495828654617071,-0.9957427978515625,
0,2023-10-26 02:30:00.1410,00:13,60,0,2023-10-26 02:30:00.2650,1698280200.2653031,0.00866059958934784,-0.004442152567207813,0.002481267089024186,0.0002899169921875,-0.0723724365234375,-1.001220703125,-21.146438598632812,31.432449340820312,-231.65423583984375,2023-10-26 02:30:00.2610,1698280200.26082,0.00013702214346267283,0.00982307456433773,-0.0013125261757522821,-0.1092984676361084,-0.0009307880827691406,-0.9958191514015198,
0,2023-10-26 02:30:00.1410,00:13,60,0,2023-10-26 02:30:00.2820,1698280200.282423,0.008724781684577465,-0.004800880327820778,0.0003025351034011692,0.0001983642578125,-0.0703125,-1.0009765625,-21.133193969726562,31.523574829101562,-231.48634338378906,2023-10-26 02:30:00.2910,1698280200.290605,-0.0013648675521835685,-0.004210319370031357,-0.002780886832624674,-0.1080624982714653,-0.0007629414612893015,-0.994720458984375,
0,2023-10-26 02:30:00.1410,00:13,60,0,2023-10-26 02:30:00.3010,1698280200.3010402,0.007641408126801252,-0.004101800732314587,-0.0003656520275399089,0.0001983642578125,-0.0715179443359375,-1.0018768310546875,-21.167999267578125,31.551055908203125,-232.0830078125,2023-10-26 02:30:00.3200,1698280200.320487,0.0004547372227534652,0.0018762024119496346,-0.0010413099080324173,-0.1076505035161972,-0.00018310756422579288,-0.99444580078125,
0,2023-10-26 02:30:00.1410,00:13,60,0,2023-10-26 02:30:00.3170,1698280200.31726,0.009343966841697693,-0.006025401875376701,0.0023246733471751213,0.0004119873046875,-0.070831298828125,-1.000091552734375,-21.064285278320312,31.471435546875,-231.7979736328125,2023-10-26 02:30:00.3500,1698280200.350141,-0.0023111552000045776,-0.007024415303021669,0.0005696364678442478,-0.1080625057220459,-0.00022888387320563197,-0.9989776611328125,
0,2023-10-26 02:30:00.1410,00:13,60,0,2023-10-26 02:30:00.3340,1698280200.333792,0.009923471137881279,-0.004905542824417353,-0.0014562164433300495,7.62939453125e-05,-0.072479248046875,-1.0006103515625,-21.064285278320312,31.471435546875,-231.7979736328125,2023-10-26 02:30:00.3800,1698280200.380059,-0.0023838593624532223,0.0029224916361272335,0.0002899512182921171,-0.1106412261724472,0.0012969949748367071,-0.9970245361328125,
0,2023-10-26 02:30:00.1410,00:13,60,0,2023-10-26 02:30:00.3500,1698280200.350438,0.008540225215256214,-0.00794207863509655,0.0010817759903147817,0.0012359619140625,-0.0722808837890625,-1.002105712890625,-21.14263916015625,31.402725219726562,-231.82066345214844,2023-10-26 02:30:00.4100,1698280200.409781,0.0036393452901393175,-0.00335690937936306,-0.0019801808521151543,-0.1073148250579834,0.0019073466246481985,-0.997344970703125,
0,2023-10-26 02:30:00.1410,00:13,60,0,2023-10-26 02:30:00.3670,1698280200.366836,0.007303985767066479,-0.007161506451666355,-0.001216798322275281,-7.62939453125e-05,-0.0716552734375,-0.999237060546875,-21.22833251953125,31.7012939453125,-231.68653869628906,2023-10-26 02:30:00.4400,1698280200.4396648,0.002040117047727108,0.0014346502721309662,0.000329525675624609,-0.1088864728808403,0.0006256083725020289,-0.9972686767578125,
0,2023-10-26 02:30:00.1410,00:13,60,0,2023-10-26 02:30:00.3820,1698280200.382273,0.006613960489630699,-0.007720503956079483,0.001597630325704813,-7.62939453125e-05,-0.0715179443359375,-1.00054931640625,-21.169021606445312,31.5501708984375,-231.57904052734375,2023-10-26 02:30:00.4690,1698280200.469449,3.708701115101576e-05,-0.002929404843598604,-0.0010439727921038866,-0.1076657697558403,0.0015869121416471899,-0.9957427978515625,
0,2023-10-26 02:30:00.1410,00:13,60,0,2023-10-26 02:30:00.4000,1698280200.4002151,0.007874168455600739,-0.007694937754422426,0.0018610169645398855,-0.0006103515625,-0.0704345703125,-1.001312255859375,-21.113082885742188,31.55975341796875,-231.97659301757812,2023-10-26 02:30:00.4990,1698280200.499454,0.0010271170176565647,0.0006034108810126781,0.0005279844626784325,-0.1103055402636528,-0.000900270591955632,-0.996917724609375,
0,2023-10-26 02:30:00.1410,00:13,60,0,2023-10-26 02:30:00.4170,1698280200.4172359,0.011777031235396862,-0.007449660450220108,0.0019110844004899263,0.0005035400390625,-0.07073974609375,-1.0016632080078125,-21.241165161132812,31.603347778320312,-231.71751403808594,2023-10-26 02:30:00.5290,1698280200.529243,0.0003795029188040644,0.003333084285259247,-0.0019613257609307766,-0.1081693097949028,0.0004119852965231985,-0.994354248046875,
0,2023-10-26 02:30:00.1410,00:13,60,0,2023-10-26 02:30:00.4340,1698280200.4335299,0.007592938374727964,-0.003849332919344306,0.0003371562052052468,-3.0517578125e-05,-0.070220947265625,-1.0005950927734375,-21.241165161132812,31.603347778320312,-231.71751403808594,2023-10-26 02:30:00.5590,1698280200.559042,-0.0022371194791048765,-0.0010301717557013035,-0.002087772125378251,-0.1075131818652153,0.001190183567814529,-0.9954986572265625,
0,2023-10-26 02:30:00.1410,00:13,60,0,2023-10-26 02:30:00.4500,1698280200.450352,0.009910954162478447,-0.006352438125759363,-0.0007936219917610288,0.0005035400390625,-0.0709381103515625,-1.0013885498046875,-21.130233764648438,31.491195678710938,-231.95164489746094,2023-10-26 02:30:00.5890,1698280200.5888119,-0.002226067241281271,-0.004871648736298084,-0.0013596108183264732,-0.1082761213183403,-0.000518800865393132,-0.99749755859375,
0,2023-10-26 02:30:00.1410,00:13,60,0,2023-10-26 02:30:00.4670,1698280200.4669108,0.00686269998550415,-0.00509995361790061,-0.0005153216770850122,-0.0003662109375,-0.07086181640625,-1.0012664794921875,-21.169204711914062,31.695083618164062,-232.00656127929688,2023-10-26 02:30:00.6190,1698280200.618668,0.0008797112386673689,0.0013327179476618767,-0.00104434578679502,-0.1088559627532959,0.0016479472978971899,-0.991546630859375,
0,2023-10-26 02:30:00.1410,00:13,60,0,2023-10-26 02:30:00.4840,1698280200.483697,0.01088646985590458,-0.007127418182790279,-0.0009331716573797166,0.000213623046875,-0.0702972412109375,-1.0012054443359375,-21.244049072265625,31.602752685546875,-231.98997497558594,2023-10-26 02:30:00.6480,1698280200.648417,-0.004788627382367849,-0.004508593585342169,-0.0009886326733976603,-0.1076352596282959,0.0010986308625433594,-0.999725341796875,
0,2023-10-26 02:30:00.1410,00:13,60,0,2023-10-26 02:30:00.5000,1698280200.500185,0.007486412301659584,-0.00933144986629486,-0.00029587719473056495,-0.0003814697265625,-0.0692596435546875,-1.000518798828125,-21.13641357421875,31.53875732421875,-231.57643127441406,2023-10-26 02:30:00.6780,1698280200.678217,0.0019556281622499228,0.007353858556598425,0.00012563425116240978,-0.1103207990527153,0.0026550274051260203,-0.996978759765625,
0,2023-10-26 02:30:00.1410,00:13,60,0,2023-10-26 02:30:00.5170,1698280200.51722,0.006118878722190857,-0.004344947170466185,0.0023792681749910116,0.0003509521484375,-0.072906494140625,-0.999603271484375,-21.0863037109375,31.581787109375,-231.7241973876953,2023-10-26 02:30:00.7080,1698280200.707823,-0.001164398156106472,-0.00803881324827671,-0.0021579733584076166,-0.1064908429980278,-0.0027923602901864797,-0.998046875,
0,2023-10-26 02:30:00.1410,00:13,60,0,2023-10-26 02:30:00.5340,1698280200.5335898,0.009208145551383495,-0.007504787761718035,-0.001249555149115622,0.0003509521484375,-0.072906494140625,-0.999603271484375,-21.0863037109375,31.581787109375,-231.7241973876953,2023-10-26 02:30:00.7380,1698280200.7377238,-0.0039992667734622955,0.0020638220012187958,-0.0007106515113264322,-0.1098020076751709,-0.001770021510310471,-0.9951934814453125,
0,2023-10-26 02:30:00.1410,00:13,60,0,2023-10-26 02:30:00.5500,1698280200.550308,0.009897904470562935,-0.005636313930153847,0.0015094797126948833,0.000579833984375,-0.073455810546875,-1.001708984375,-21.0953369140625,31.46881103515625,-231.8314666748047,2023-10-26 02:30:00.7680,1698280200.7675672,-0.000494679668918252,0.00664619030430913,0.0023248190991580486,-0.1083066463470459,0.001968381751794368,-0.9952240586280823,
0,2023-10-26 02:30:00.1410,00:13,60,0,2023-10-26 02:30:00.5670,1698280200.5669808,0.0067633637227118015,-0.006080795545130968,-0.0017092167399823666,0.0005645751953125,-0.07183837890625,-1.001861572265625,-21.068511962890625,31.625167846679688,-231.90121459960938,2023-10-26 02:30:00.7980,1698280200.7975101,0.00602294085547328,-0.002316212747246027,-0.001574634574353695,-0.1071012020111084,0.0009460429428145289,-0.995697021484375,
0,2023-10-26 02:30:00.1410,00:13,60,0,2023-10-26 02:30:00.5830,1698280200.583399,0.006654440425336361,-0.004062385763972998,0.0010735202813521028,0.0005950927734375,-0.072296142578125,-1.0001678466796875,-21.167327880859375,31.73101806640625,-231.93898010253906,2023-10-26 02:30:00.8270,1698280200.827203,-9.187657269649208e-05,0.006679079961031675,0.0008715323638170958,-0.1101682186126709,-0.0005950947524979711,-0.998779296875,
0,2023-10-26 02:30:00.1410,00:13,60,0,2023-10-26 02:30:00.6000,1698280200.600309,0.008891229517757893,-0.006814230233430862,-0.000278300343779847,0.0005950927734375,-0.072296142578125,-1.0001678466796875,-21.188980102539062,31.63775634765625,-231.80645751953125,2023-10-26 02:30:00.8570,1698280200.8570518,-0.0011184585746377707,-0.0008510742336511612,7.492746226489544e-05,-0.1065518856048584,0.000701902259606868,-0.9960479736328125,
0,2023-10-26 02:30:00.1410,00:13,60,0,2023-10-26 02:30:00.6160,1698280200.616118,0.008802013471722603,-0.007819040678441525,0.0021174794528633356,0.000213623046875,-0.0706787109375,-1.0001068115234375,-21.188980102539062,31.63775634765625,-231.80645751953125,2023-10-26 02:30:00.8870,1698280200.886811,0.0014502268750220537,-0.0038863453082740307,-0.000819734763354063,-0.1069638729095459,0.001220701145939529,-0.9957886338233948,
0,2023-10-26 02:30:00.1410,00:13,60,0,2023-10-26 02:30:00.6340,1698280200.6341372,0.009972206316888332,-0.003132942598313093,0.0015720640076324344,0.001129150390625,-0.069976806640625,-1.0002593994140625,-21.121246337890625,31.441162109375,-231.7857208251953,2023-10-26 02:30:00.9170,1698280200.9166632,-5.665625212714076e-05,-0.0027147550135850906,-4.754401743412018e-06,-0.1095883697271347,0.0014343241055030376,-0.9944305419921875,
0,2023-10-26 02:30:00.1410,00:13,60,0,2023-10-26 02:30:00.6510,1698280200.6506572,0.009125587530434132,-0.008384696207940578,0.0003787015157286078,-0.0001373291015625,-0.0712127685546875,-1.002838134765625,-21.126235961914062,31.375381469726562,-231.98184204101562,2023-10-26 02:30:00.9460,1698280200.9464421,-0.005685180891305208,0.014211698435246944,-0.00011112075299024582,-0.1087796539068222,0.000961301673669368,-0.9943695068359375,
0,2023-10-26 02:30:00.1410,00:13,60,0,2023-10-26 02:30:00.6670,1698280200.666975,0.009125587530434132,-0.008384696207940578,0.0003787015157286078,-0.0001373291015625,-0.0704345703125,-1.0008392333984375,-21.09844970703125,31.62078857421875,-232.1998291015625,2023-10-26 02:30:00.9760,1698280200.976263,-0.0028340669814497232,-0.010827808640897274,-0.00021407869644463062,-0.1070706769824028,0.0009307841246481985,-0.996307373046875,
0,2023-10-26 02:30:00.1410,00:13,60,0,2023-10-26 02:30:00.6840,1698280200.6836638,0.007455253042280674,-0.009406550787389278,-0.0020775320008397102,-0.0010528564453125,-0.0703887939453125,-1.0004425048828125,-21.0863037109375,31.692398071289062,-231.89529418945312,2023-10-26 02:30:01.0060,1698280201.005952,0.0029599727131426334,0.009643311612308025,0.00036569125950336456,-0.1085965558886528,0.002792356302961707,-0.9924774169921875,
0,2023-10-26 02:30:00.1410,00:13,60,0,2023-10-26 02:30:00.7000,1698280200.7004662,0.010486729443073273,-0.004569984506815672,-0.00026072346372529864,3.0517578125e-05,-0.0712432861328125,-0.9997406005859375,-21.06146240234375,31.591232299804688,-231.8083953857422,2023-10-26 02:30:01.0360,1698280201.03586,-0.0033284162636846304,-0.012384893372654915,-0.0007009576074779034,-0.1056058332324028,0.0006713847396895289,-0.9953765869140625,
0,2023-10-26 02:30:00.1410,00:13,60,0,2023-10-26 02:30:00.7170,1698280200.717071,0.010814830660820007,-0.00794500857591629,0.0024288028944283724,0.0006866455078125,-0.0719146728515625,-1.002349853515625,-21.06146240234375,31.591232299804688,-231.8083953857422,2023-10-26 02:30:01.0660,1698280201.0660129,4.9470720114186406e-05,0.006456772796809673,0.0008246072102338076,-0.1102139949798584,0.00041198526741936803,-0.9976806640625,
0,2023-10-26 02:30:00.1410,00:13,60,0,2023-10-26 02:30:00.7340,1698280200.733536,0.010814830660820007,-0.00794500857591629,0.0024288028944283724,4.57763671875e-05,-0.07183837890625,-1.0010223388671875,-21.092193603515625,31.651931762695312,-231.99574279785156,2023-10-26 02:30:01.0960,1698280201.09572,0.0015471659135073423,-0.005911945831030607,-0.0008827988058328629,-0.1061093807220459,0.0006866435287520289,-0.994598388671875,
0,2023-10-26 02:30:00.1410,00:13,60,0,2023-10-26 02:30:00.7500,1698280200.7504668,0.007698133587837219,-0.007254983298480511,0.002632800955325365,-0.0012054443359375,-0.0722808837890625,-1.0004119873046875,-20.998260498046875,31.687911987304688,-232.16824340820312,2023-10-26 02:30:01.1250,1698280201.1253629,-0.0047169881872832775,-0.003377815242856741,-0.00030521186999976635,-0.1077573299407959,-0.0009613056317903101,-0.997314453125,
0,2023-10-26 02:30:00.1410,00:13,60,0,2023-10-26 02:30:00.7670,1698280200.766778,0.005346295889467001,-0.0017627463676035404,-0.00024341292737517506,-0.000579833984375,-0.0709075927734375,-1.0019989013671875,-21.095321655273438,31.580886840820312,-232.18765258789062,2023-10-26 02:30:01.1550,1698280201.155149,-0.0008497456437908113,-0.0001759631559252739,0.0003902988974004984,-0.1084439754486084,0.00033569138031452894,-0.9947509765625,
0,2023-10-26 02:30:00.1410,00:13,60,0,2023-10-26 02:30:00.7840,1698280200.7837172,0.009459814056754112,-0.004778243601322174,-0.002373941708356142,0.001312255859375,-0.0705108642578125,-1.0002899169921875,-21.009384155273438,31.48919677734375,-231.98495483398438,2023-10-26 02:30:01.1850,1698280201.1845388,-0.0023174136877059937,-0.00035998737439513206,-0.00047267181798815727,-0.1088406965136528,0.00033569132210686803,-0.9971923828125,
0,2023-10-26 02:30:00.1410,00:13,60,0,2023-10-26 02:30:00.8000,1698280200.8002381,0.0100212087854743,-0.0033654365688562393,-0.0008679241873323917,0.0005340576171875,-0.070465087890625,-0.9998779296875,-21.064971923828125,31.41583251953125,-231.9568634033203,2023-10-26 02:30:01.2140,1698280201.214476,-0.0003195102617610246,-0.001452416181564331,0.0027667973190546036,-0.1086118221282959,0.002090452122502029,-0.9963379502296448,
0,2023-10-26 02:30:00.1410,00:13,60,0,2023-10-26 02:30:00.8170,1698280200.817091,0.008529306389391422,-0.004713795147836208,-0.0003611246356740594,0.0003509521484375,-0.070953369140625,-1.0022735595703125,-21.064971923828125,31.41583251953125,-231.9568634033203,2023-10-26 02:30:01.2440,1698280201.244175,-0.005780721548944712,-0.00394127331674099,-0.00047932984307408333,-0.1071927472949028,-0.001052858482580632,-0.9953460693359375,
0,2023-10-26 02:30:00.1410,00:13,60,0,2023-10-26 02:30:00.8340,1698280200.8335419,0.0065353973768651485,-0.004422445315867662,-0.0008713863207958639,-0.0005950927734375,-0.0720977783203125,-0.999420166015625,-20.966110229492188,31.404632568359375,-231.86285400390625,2023-10-26 02:30:01.2740,1698280201.2741308,-0.001039162976667285,0.006451379507780075,0.0034029202070087194,-0.1092526912689209,9.155075531452894e-05,-0.9903565049171448,
0,2023-10-26 02:30:00.1410,00:13,60,0,2023-10-26 02:30:00.8500,1698280200.850309,0.008101335726678371,-0.0051843756809830666,0.0006870955694466829,0.0008392333984375,-0.0716400146484375,-1.0051422119140625,-21.128158569335938,31.441238403320312,-232.2553253173828,2023-10-26 02:30:01.3040,1698280201.303856,0.0013522891094908118,-0.0034840088337659836,-0.0006530208047479391,-0.1089017316699028,0.001831052650231868,-0.9968872666358948,
0,2023-10-26 02:30:00.1410,00:13,60,0,2023-10-26 02:30:00.8680,1698280200.867574,0.006594253238290548,-0.002746251644566655,0.0028815402183681726,7.62939453125e-05,-0.0718841552734375,-1.0002593994140625,-21.130615234375,31.74530029296875,-231.77993774414062,2023-10-26 02:30:01.3340,1698280201.3339272,-0.0007458158070221543,0.007043001241981983,0.0012857604306191206,-0.1088864803314209,0.002700803626794368,-0.99462890625,
0,2023-10-26 02:30:00.1410,00:13,60,0,2023-10-26 02:30:00.8840,1698280200.8837,0.0049737198278307915,-0.0047055394388735294,-0.0012993563432246447,0.0005950927734375,-0.0714569091796875,-1.0019683837890625,-21.010223388671875,31.48602294921875,-231.6587677001953,2023-10-26 02:30:01.3630,1698280201.363456,-0.0025225437711924314,-0.006072135176509619,-0.00029088440351188183,-0.1065671443939209,0.001693723548669368,-0.993804931640625,
0,2023-10-26 02:30:00.1410,00:13,60,0,2023-10-26 02:30:00.9000,1698280200.900003,0.008264853619039059,-0.00481206551194191,-0.0009462211164645851,0.0003662109375,-0.0711669921875,-1.0008087158203125,-21.010223388671875,31.48602294921875,-231.6587677001953,2023-10-26 02:30:01.3930,1698280201.393415,-9.267550194635987e-05,0.006273746956139803,0.001588987885043025,-0.1084134578704834,0.001022336888127029,-0.9932861328125,
0,2023-10-26 02:30:00.1410,00:13,60,0,2023-10-26 02:30:00.9170,1698280200.917037,0.006792126223444939,-0.006155097857117653,0.001005343277938664,-0.0003204345703125,-0.0727691650390625,-1.0005645751953125,-21.090347290039062,31.6278076171875,-231.4100799560547,2023-10-26 02:30:01.4230,1698280201.423193,0.0007913909503258765,-0.004004190210253,-0.0006883877795189619,-0.1063230037689209,0.001190183509606868,-0.9989929795265198,
0,2023-10-26 02:30:00.1410,00:13,60,0,2023-10-26 02:30:00.9340,1698280200.9336681,0.008564726449549198,-0.006626477465033531,-0.0020042951218783855,-0.0012054443359375,-0.0712127685546875,-1.0001068115234375,-21.104812622070312,31.75079345703125,-231.83969116210938,2023-10-26 02:30:01.4530,1698280201.4530358,0.0017519294051453471,0.0010837120935320854,-0.0029913829639554024,-0.1093747615814209,0.00048827927093952894,-0.999786376953125,
0,2023-10-26 02:30:00.1410,00:13,60,0,2023-10-26 02:30:00.9500,1698280200.9502702,0.010420150123536587,-0.004055994097143412,-0.00027803401462733746,6.103515625e-05,-0.0713043212890625,-1.0007781982421875,-21.049240112304688,31.619735717773438,-231.90074157714844,2023-10-26 02:30:01.4830,1698280201.482932,0.0026077423244714737,-0.008075099438428879,-0.002475315472111106,-0.1067502424120903,-0.00045776570914313197,-0.9938507080078125,
0,2023-10-26 02:30:00.1410,00:13,60,0,2023-10-26 02:30:00.9670,1698280200.966927,0.006376939360052347,-0.0065471152774989605,0.0023118900135159492,0.0017242431640625,-0.0703582763671875,-1.001220703125,-21.275360107421875,31.698028564453125,-232.08355712890625,2023-10-26 02:30:01.5130,1698280201.5126371,0.0019833645783364773,-0.0027414527721703053,-0.0008271916303783655,-0.1075437068939209,0.000579831947106868,-0.99444580078125,
0,2023-10-26 02:30:00.1410,00:13,60,0,2023-10-26 02:30:00.9840,1698280200.983828,0.00863476749509573,-0.00788428820669651,0.0019462381023913622,0.000396728515625,-0.0706634521484375,-1.0025634765625,-20.940338134765625,31.50665283203125,-231.4926300048828,2023-10-26 02:30:01.5420,1698280201.5424662,0.00036536084371618927,-0.003775158431380987,-0.0016846233047544956,-0.1087796539068222,0.0010986307170242071,-0.9929351806640625,
0,2023-10-26 02:30:00.1410,00:13,60,0,2023-10-26 02:30:01.0000,1698280201.000149,0.005985986907035112,-0.008552475832402706,0.0011262508342042565,-0.0005340576171875,-0.0702056884765625,-1.001068115234375,-20.940338134765625,31.50665283203125,-231.4926300048828,2023-10-26 02:30:01.5720,1698280201.572184,0.00293937255628407,-0.0018209973350167274,-0.00020182831212878227,-0.1088254377245903,0.0017852762539405376,-0.994140625,
0,2023-10-26 02:30:00.1410,00:13,60,0,2023-10-26 02:30:01.0170,1698280201.0170531,0.011998339556157589,-0.005502623505890369,0.001469532260671258,-0.001007080078125,-0.0697021484375,-1.000030517578125,-21.242919921875,31.598892211914062,-231.88743591308594,2023-10-26 02:30:01.6020,1698280201.602005,0.007821213454008102,0.004680044949054718,0.0004564519040286541,-0.1091306209564209,-0.0008697528974153101,-0.9966278076171875,
0,2023-10-26 02:30:00.1410,00:13,60,0,2023-10-26 02:30:01.0340,1698280201.033555,0.013147760182619095,-0.007125553674995899,-0.0046091326512396336,0.0012054443359375,-0.0715179443359375,-1.0028533935546875,-21.106063842773438,31.69049072265625,-231.99066162109375,2023-10-26 02:30:01.6320,1698280201.631769,0.001205588225275278,0.003876103088259697,-0.0004357066936790943,-0.1086270809173584,-0.0008544941083528101,-0.9949188828468323,
0,2023-10-26 02:30:00.1410,00:13,60,0,2023-10-26 02:30:01.0500,1698280201.05039,0.006295979022979736,-0.005875732284039259,0.0025627599097788334,0.0012054443359375,-0.0715179443359375,-1.0028533935546875,-21.145339965820312,31.782012939453125,-232.21151733398438,2023-10-26 02:30:01.6620,1698280201.661573,0.0024004154838621616,-0.0007142540998756886,-0.00019799335859715939,-0.1080167219042778,0.0016784648032626137,-0.998687744140625,
0,2023-10-26 02:30:00.1410,00:13,60,0,2023-10-26 02:30:01.0670,1698280201.066931,0.010237457230687141,-0.008355667814612389,-0.001511343871243298,-6.103515625e-05,-0.070526123046875,-1.0004730224609375,-21.172073364257812,31.788772583007812,-232.02552795410156,2023-10-26 02:30:01.6910,1698280201.691361,-0.0002024250861722976,-0.0033136331476271152,-0.0009544906206429005,-0.1108548566699028,0.0012969951785635203,-0.9958038330078125,
0,2023-10-26 02:30:00.1410,00:13,60,0,2023-10-26 02:30:01.0840,1698280201.0837,0.00703926756978035,-0.004860801622271538,-0.0008633967954665422,-0.000640869140625,-0.0705718994140625,-1.0006103515625,-21.007080078125,31.349075317382812,-232.02403259277344,2023-10-26 02:30:01.7210,1698280201.7211928,-0.0006036303238943219,0.001219733152538538,-0.003363533178344369,-0.1089169904589653,0.0004119853983866051,-0.9976043701171875,
0,2023-10-26 02:30:00.1410,00:13,60,0,2023-10-26 02:30:01.1000,1698280201.100068,0.013744041323661804,-0.005655222572386265,0.00020133497309871018,0.00103759765625,-0.0715484619140625,-1.0001220703125,-21.007080078125,31.349075317382812,-232.02403259277344,2023-10-26 02:30:01.7510,1698280201.751003,0.0005228202790021896,-0.003934215754270554,-0.002501627430319786,-0.1080930158495903,0.002441404401906766,-0.9943084716796875,
0,2023-10-26 02:30:00.1410,00:13,60,0,2023-10-26 02:30:01.1170,1698280201.117013,0.01019617822021246,-0.0038772961124777794,0.0014514228096231818,0.00103759765625,-0.0715484619140625,-1.0001220703125,-21.205215454101562,31.629302978515625,-231.8483428955078,2023-10-26 02:30:01.7810,1698280201.780796,0.0031311868224292994,0.0009068120270967484,-0.003869373584166169,-0.1096646711230278,-0.0006408710105461068,-0.996246337890625,
0,2023-10-26 02:30:00.1410,00:13,60,0,2023-10-26 02:30:01.1340,1698280201.133668,0.010126936249434948,-0.005985986907035112,-0.002295911079272628,0.000701904296875,-0.072235107421875,-0.9997100830078125,-21.027511596679688,31.200881958007812,-231.66903686523438,2023-10-26 02:30:01.8110,1698280201.810526,0.006551684346050024,-0.014673679135739803,-0.001571491826325655,-0.1089322566986084,-0.0032196063293667976,-0.9925537109375,
0,2023-10-26 02:30:00.1410,00:13,60,0,2023-10-26 02:30:01.1500,1698280201.150363,0.007701063062995672,-0.005328186322003603,-0.0014748586108908057,-0.0002593994140625,-0.0715789794921875,-1.001922607421875,-20.999954223632812,31.245529174804688,-231.6817169189453,2023-10-26 02:30:01.8400,1698280201.840436,0.004235200118273497,0.01244349218904972,-0.002083138097077608,-0.1095120832324028,-0.000503541887155734,-0.996673583984375,
0,2023-10-26 02:30:00.1410,00:13,60,0,2023-10-26 02:30:01.1670,1698280201.1668348,0.007731156423687935,-0.006883206311613321,0.0015403723809868097,-0.00042724609375,-0.0730133056640625,-0.9997711181640625,-20.963363647460938,31.539779663085938,-231.87525939941406,2023-10-26 02:30:01.8700,1698280201.870209,-0.004576400853693485,-0.013523127883672714,-0.0028623261023312807,-0.1092374175786972,-0.0034484881325624883,-0.995880126953125,
0,2023-10-26 02:30:00.1410,00:13,60,0,2023-10-26 02:30:01.1840,1698280201.1839461,0.007893077097833157,-0.00717748561874032,0.0006199838826432824,0.0005645751953125,-0.071624755859375,-1.001922607421875,-21.218429565429688,31.61932373046875,-231.75157165527344,2023-10-26 02:30:01.9000,1698280201.899979,-0.004903437104076147,0.013859495520591736,0.0003078477457165718,-0.1102292537689209,0.0011291485134279355,-0.9991607666015625,
0,2023-10-26 02:30:00.1410,00:13,60,0,2023-10-26 02:30:01.2000,1698280201.2001271,0.0075969332829117775,-0.003938016481697559,-0.0015283881220966578,0.000762939453125,-0.0714263916015625,-0.9998779296875,-21.218429565429688,31.61932373046875,-231.75157165527344,2023-10-26 02:30:01.9300,1698280201.929815,-0.00015462134615518153,-0.003889275249093771,-0.0011406457051634789,-0.1085050031542778,-0.0007324236939894035,-0.9954376220703125,
0,2023-10-26 02:30:00.1410,00:13,60,0,2023-10-26 02:30:01.2170,1698280201.217154,0.006136455573141575,-0.007126352749764919,-0.0002561961009632796,0.0002288818359375,-0.071685791015625,-1.0008544921875,-21.11065673828125,31.645370483398438,-232.2163848876953,2023-10-26 02:30:01.9600,1698280201.959588,-0.00011833578173536807,-0.002578267827630043,-0.001195346936583519,-0.1098630353808403,-1.8189894035458565e-09,-0.9980316162109375,
0,2023-10-26 02:30:00.1410,00:13,60,0,2023-10-26 02:30:01.2340,1698280201.2339149,0.010118680074810982,-0.005546032916754484,-0.0003944141499232501,-0.0002899169921875,-0.0718841552734375,-1.0015869140625,-21.258102416992188,31.424896240234375,-232.3016815185547,2023-10-26 02:30:01.9890,1698280201.989352,0.001107051270082593,0.007231685798615217,-0.00033551547676324844,-0.1107327789068222,-0.0002746599930105731,-0.992584228515625,
0,2023-10-26 02:30:00.1410,00:13,60,0,2023-10-26 02:30:01.2500,1698280201.249845,0.010118680074810982,-0.005546032916754484,-0.0003944141499232501,-0.000335693359375,-0.0714874267578125,-0.9998626708984375,-21.161651611328125,31.73858642578125,-231.8297119140625,2023-10-26 02:30:02.0190,1698280202.019168,-0.0018992581171914935,-0.003361437004059553,0.00039983284659683704,-0.1077725887298584,-0.0011138934059999883,-0.9950408935546875,
0,2023-10-26 02:30:00.1410,00:13,60,0,2023-10-26 02:30:01.2670,1698280201.267116,0.006053365301340818,-0.004731105640530586,0.000990695902146399,0.00042724609375,-0.0701751708984375,-1.00115966796875,-21.042465209960938,31.68408203125,-231.68980407714844,2023-10-26 02:30:02.0490,1698280202.049279,-0.004104688297957182,0.0017596222460269928,0.0016338347923010588,-0.1098782941699028,0.001571653425344266,-0.9962615966796875,
0,2023-10-26 02:30:00.1410,00:13,60,0,2023-10-26 02:30:01.2840,1698280201.283848,0.009335977025330067,-0.0038418760523200035,0.0003251719754189253,0.000335693359375,-0.071044921875,-0.997772216796875,-21.042465209960938,31.68408203125,-231.68980407714844,2023-10-26 02:30:02.0790,1698280202.0789828,0.002280173823237419,0.003155984217301011,-0.003234956180676818,-0.1066434234380722,-0.0004882830398855731,-0.9934844970703125,
0,2023-10-26 02:30:00.1410,00:13,60,0,2023-10-26 02:30:01.2980,1698280201.298295,0.007098922040313482,-0.004087419714778662,0.0027236149180680513,0.000640869140625,-0.072296142578125,-1.0023956298828125,-21.04931640625,31.484725952148438,-231.43626403808594,2023-10-26 02:30:02.1090,1698280202.108712,-0.0022586516570299864,-0.05255920812487602,0.00216582790017128,-0.1085050031542778,-0.0036163347540423274,-0.99395751953125,
0,2023-10-26 02:30:00.1410,00:13,60,0,2023-10-26 02:30:01.3170,1698280201.31723,0.0070312777534127235,-0.004040281753987074,0.0020474381744861603,4.57763671875e-05,-0.0719146728515625,-1.0008544921875,-21.2508544921875,31.561325073242188,-232.15765380859375,2023-10-26 02:30:02.1380,1698280202.138396,-0.01134043000638485,-0.0015169312246143818,0.0011034398339688778,-0.1157834529876709,-0.003738405284821056,-0.9949951171875,
0,2023-10-26 02:30:00.1410,00:13,60,0,2023-10-26 02:30:01.3330,1698280201.333438,0.0067788101732730865,-0.002912166528403759,0.0013651363551616669,0.0002899169921875,-0.0707855224609375,-1.001220703125,-21.139480590820312,31.67242431640625,-231.87681579589844,2023-10-26 02:30:02.1680,1698280202.168174,0.0035260003060102463,-0.22546280920505524,-0.029850587248802185,-0.0951993390917778,-0.0018615741864778101,-1.00128173828125,
0,2023-10-26 02:30:00.1410,00:13,60,0,2023-10-26 02:30:01.3500,1698280201.350263,0.009091499261558056,-0.006826480850577354,0.0016354472609236836,0.00042724609375,-0.071319580078125,-1.0003814697265625,-21.261672973632812,31.526565551757812,-231.9821319580078,2023-10-26 02:30:02.1980,1698280202.198148,-0.01672447845339775,0.13717910647392273,0.02012741006910801,-0.1183774471282959,-0.0003356950473971665,-1.0053101181983948,
0,2023-10-26 02:30:00.1410,00:13,60,0,2023-10-26 02:30:01.3670,1698280201.3670402,0.007090133614838123,-0.005241101142019033,-0.0008937568636611104,0.0004730224609375,-0.0709075927734375,-1.00225830078125,-21.096969604492188,31.47918701171875,-231.63523864746094,2023-10-26 02:30:02.2280,1698280202.227851,0.011125263758003712,0.10747765749692917,0.009004718624055386,-0.1079404354095459,0.005401609698310494,-0.9946136474609375,
0,2023-10-26 02:30:00.1410,00:13,60,0,2023-10-26 02:30:01.3840,1698280201.3840399,0.006561762653291225,-0.005508216097950935,0.0005464806454256177,-0.000335693359375,-0.0724945068359375,-0.9999237060546875,-21.096969604492188,31.47918701171875,-231.63523864746094,2023-10-26 02:30:02.2580,1698280202.2575278,0.021694017574191093,0.11354434490203857,-0.0025508434046059847,-0.1133725494146347,0.0025634746707510203,-0.9894561767578125,
0,2023-10-26 02:30:00.1410,00:13,60,0,2023-10-26 02:30:01.4000,1698280201.39979,0.007892011664807796,-0.004412857815623283,0.0008671252289786935,-0.00018310546875,-0.0725860595703125,-1.0012664794921875,-21.191909790039062,31.547225952148438,-231.5274658203125,2023-10-26 02:30:02.2870,1698280202.2873769,0.042758625000715256,-0.7501507997512817,-0.014842876233160496,-0.053680166602134705,0.004180906485999003,-0.9879913330078125,
0,2023-10-26 02:30:00.1410,00:13,60,0,2023-10-26 02:30:01.4170,1698280201.416924,0.014364025555551052,-0.007378021255135536,0.00035180358099751174,-7.62939453125e-05,-0.0695037841796875,-0.9990081787109375,-21.236328125,31.674545288085938,-231.8282470703125,2023-10-26 02:30:02.3170,1698280202.317127,-0.0017918661469593644,0.19980758428573608,0.018313957378268242,-0.1678617000579834,-0.002105714491335675,-1.0127716064453125,
0,2023-10-26 02:30:00.1410,00:13,60,0,2023-10-26 02:30:01.4340,1698280201.4335098,0.00917512271553278,-0.00475507415831089,0.001061802264302969,0.0009002685546875,-0.0708160400390625,-1.00177001953125,-21.215377807617188,31.670547485351562,-232.13597106933594,2023-10-26 02:30:02.3470,1698280202.346983,0.020680485293269157,0.1391953080892563,0.04200772941112518,-0.0661466121673584,0.010604856244754046,-1.0130921006202698,
0,2023-10-26 02:30:00.1410,00:13,60,0,2023-10-26 02:30:01.4500,1698280201.4504051,0.006533532869070768,-0.004837898537516594,-0.0009020126308314502,-0.0002288818359375,-0.07098388671875,-1.0002288818359375,-21.229232788085938,31.699310302734375,-231.7685546875,2023-10-26 02:30:02.3770,1698280202.376803,-0.2140842229127884,0.4479879140853882,0.06012659892439842,-0.2368619367480278,0.00396728259511292,-1.024505615234375,
0,2023-10-26 02:30:00.1410,00:13,60,0,2023-10-26 02:30:01.4670,1698280201.4669151,0.012781042605638504,-0.006403570994734764,0.0010431602131575346,0.001251220703125,-0.0720672607421875,-1.000396728515625,-21.195648193359375,31.7125244140625,-231.5249481201172,2023-10-26 02:30:02.4070,1698280202.406546,-0.2323981672525406,0.7070183157920837,-0.0018028679769486189,-0.0759580135345459,0.008926389273256063,-1.0404815673828125,
0,2023-10-26 02:30:00.1410,00:13,60,0,2023-10-26 02:30:01.4840,1698280201.483715,0.0105328019708395,-0.00692022405564785,-0.0007222492713481188,-0.000457763671875,-0.071868896484375,-1.000701904296875,-21.195648193359375,31.7125244140625,-231.5249481201172,2023-10-26 02:30:02.4360,1698280202.436226,-0.0027183133643120527,0.9699561595916748,0.04314766824245453,-0.0577237531542778,0.025970454327762127,-1.1044158935546875,
0,2023-10-26 02:30:00.1410,00:13,60,0,2023-10-26 02:30:01.5000,1698280201.500128,0.014040185138583183,-0.0057167415507137775,-0.0014173343079164624,0.000701904296875,-0.07177734375,-1.0002288818359375,-21.123321533203125,31.451156616210938,-231.72793579101562,2023-10-26 02:30:02.4660,1698280202.465979,0.2324949949979782,1.2354087829589844,0.013746104203164577,-0.0552976168692112,0.0247497521340847,-1.159637451171875,
0,2023-10-26 02:30:00.1410,00:13,60,0,2023-10-26 02:30:01.5170,1698280201.517014,0.00926247425377369,-0.00407596817240119,0.0018160095205530524,0.000946044921875,-0.0713043212890625,-1.0001983642578125,-21.327911376953125,31.80316162109375,-231.87796020507812,2023-10-26 02:30:02.4960,1698280202.495833,0.6358485817909241,0.9239729642868042,0.15536396205425262,0.037613140884786844,0.016815184149891138,-1.012451171875,
0,2023-10-26 02:30:00.1410,00:13,60,0,2023-10-26 02:30:01.5330,1698280201.533268,0.010063286870718002,-0.0067820060066878796,-0.00040666470886208117,0.000579833984375,-0.072296142578125,-1.00042724609375,-21.238861083984375,31.4677734375,-231.97450256347656,2023-10-26 02:30:02.5260,1698280202.525803,0.4816768765449524,0.36376503109931946,0.31114882230758667,0.04199241101741791,-0.02091980166733265,-0.8908538818359375,
0,2023-10-26 02:30:00.1410,00:13,60,0,2023-10-26 02:30:01.5500,1698280201.549755,0.01179487444460392,-0.004989432170987129,-0.0006615291931666434,-4.57763671875e-05,-0.0707244873046875,-1.0003662109375,-21.2864990234375,31.579559326171875,-231.77651977539062,2023-10-26 02:30:02.5560,1698280202.555719,0.4386953115463257,0.6637123227119446,0.09507180005311966,-0.049545060843229294,-0.0363311804831028,-1.0273590087890625,
0,2023-10-26 02:30:00.1410,00:13,60,0,2023-10-26 02:30:01.5670,1698280201.567054,0.012737632729113102,-0.0044317664578557014,-0.0003249056462664157,-4.57763671875e-05,-0.0707244873046875,-1.0003662109375,-21.211563110351562,31.506393432617188,-232.01052856445312,2023-10-26 02:30:02.5850,1698280202.585369,0.7738210558891296,0.759897768497467,0.04824192449450493,0.03755209594964981,-0.0484619066119194,-1.0144957900047302,
0,2023-10-26 02:30:00.1410,00:13,60,0,2023-10-26 02:30:01.5840,1698280201.583569,0.011486480012536049,-0.00299286050722003,0.0026351979468017817,-0.0012664794921875,-0.0709991455078125,-0.9999542236328125,-21.211563110351562,31.506393432617188,-232.01052856445312,2023-10-26 02:30:02.6150,1698280202.615078,0.7198208570480347,0.7501621246337891,0.08269315958023071,0.08035299926996231,-0.1542053148150444,-0.929962158203125,
0,2023-10-26 02:30:00.1410,00:13,60,0,2023-10-26 02:30:01.6000,1698280201.60035,0.011938684619963169,-0.0041065942496061325,0.00016112125013023615,0.000579833984375,-0.07220458984375,-1.0004425048828125,-21.060516357421875,31.393112182617188,-231.7008819580078,2023-10-26 02:30:02.6450,1698280202.6449409,0.49714940786361694,-0.11812449991703033,0.12911845743656158,0.1990511119365692,-0.2553253099322319,-0.9504546523094177,
0,2023-10-26 02:30:00.1410,00:13,60,0,2023-10-26 02:30:01.6160,1698280201.616041,0.013038303703069687,-0.004977714270353317,-0.0002873550693038851,0.0009613037109375,-0.0738677978515625,-1.00225830078125,-21.2562255859375,31.602798461914062,-232.0569305419922,2023-10-26 02:30:02.6750,1698280202.6747131,0.22943183779716492,-0.40523073077201843,0.06282427906990051,0.1538088023662567,-0.2722472921013832,-1.0270232558250427,
0,2023-10-26 02:30:00.1410,00:13,60,0,2023-10-26 02:30:01.6340,1698280201.633554,0.013583986088633537,-0.0049558766186237335,0.0036522590089589357,0.0009613037109375,-0.0738677978515625,-1.00225830078125,-21.159942626953125,31.523590087890625,-232.00889587402344,2023-10-26 02:30:02.7050,1698280202.704548,-0.0515843890607357,0.3981155753135681,-0.4345388114452362,-0.06402567028999329,-0.2644500583410263,-1.0706939101219177,
0,2023-10-26 02:30:00.1410,00:13,60,0,2023-10-26 02:30:01.6490,1698280201.649201,0.014123808592557907,-0.004768656101077795,-0.0017944378778338432,0.0009765625,-0.070526123046875,-1.0019378662109375,-21.258834838867188,31.604415893554688,-231.5283966064453,2023-10-26 02:30:02.7340,1698280202.734301,0.1144232228398323,0.3073941767215729,-0.9936510324478149,0.1688692346215248,-0.1598052829504013,-1.022918701171875,
0,2023-10-26 02:30:00.1410,00:13,60,0,2023-10-26 02:30:01.6640,1698280201.664392,0.011240936815738678,-0.004571582190692425,0.0014434333425015211,0.0010833740234375,-0.071258544921875,-1.0028076171875,-21.258834838867188,31.604415893554688,-231.5283966064453,2023-10-26 02:30:02.7640,1698280202.764116,0.09453753381967545,0.2340942621231079,-1.0100301504135132,0.12214681506156921,-0.07794187217950821,-1.0396880507469177,
0,2023-10-26 02:30:00.1410,00:13,60,0,2023-10-26 02:30:01.6840,1698280201.684099,0.008986570872366428,-0.0036218990571796894,0.00034647725988179445,0.000579833984375,-0.0730438232421875,-1.0009002685546875,-21.032821655273438,31.242782592773438,-231.2149658203125,2023-10-26 02:30:02.7940,1698280202.793802,0.18035343289375305,0.29207441210746765,-0.7650061845779419,0.08659383654594421,-0.03311154246330261,-1.022674560546875,
0,2023-10-26 02:30:00.1410,00:13,60,0,2023-10-26 02:30:01.7000,1698280201.700086,0.008986570872366428,-0.0036218990571796894,0.00034647725988179445,-4.57763671875e-05,-0.0709075927734375,-1.0012969970703125,-21.195022583007812,31.264541625976562,-231.5647735595703,2023-10-26 02:30:02.8240,1698280202.8236852,0.35472530126571655,0.207487553358078,-0.2832961082458496,0.1353304088115692,0.13043216615915298,-0.9218597412109375,
0,2023-10-26 02:30:00.1410,00:13,60,0,2023-10-26 02:30:01.7170,1698280201.716984,0.01335761696100235,-0.0034586472902446985,-3.382214708835818e-05,0.001068115234375,-0.0714874267578125,-0.99920654296875,-21.227035522460938,31.338226318359375,-231.84136962890625,2023-10-26 02:30:02.8530,1698280202.8534389,-0.06447382271289825,0.21984994411468506,0.2196221947669983,0.022751063108444214,-0.008178681135177612,-0.8986815810203552,
0,2023-10-26 02:30:00.1410,00:13,60,0,2023-10-26 02:30:01.7340,1698280201.733745,0.009053150191903114,-0.004936435259878635,-0.0011092065833508968,0.000823974609375,-0.07257080078125,-1.0027313232421875,-21.239303588867188,31.359603881835938,-232.0295867919922,2023-10-26 02:30:02.8830,1698280202.8834748,-0.15434245765209198,-0.06936801224946976,0.3812757432460785,0.010681360960006714,0.013366743922233582,-0.778900146484375,
0,2023-10-26 02:30:00.1410,00:13,60,0,2023-10-26 02:30:01.7500,1698280201.750458,0.01025609951466322,-0.004553472623229027,-0.0008660599705763161,0.0012054443359375,-0.0708465576171875,-1.002349853515625,-21.116104125976562,31.320724487304688,-231.83419799804688,2023-10-26 02:30:02.9130,1698280202.913076,-0.2214023917913437,-0.32469436526298523,0.17643418908119202,0.026352137327194214,-0.03523251414299011,-0.7982940673828125,
0,2023-10-26 02:30:00.1410,00:13,60,0,2023-10-26 02:30:01.7670,1698280201.766739,0.01025609951466322,-0.004553472623229027,-0.0008660599705763161,0.00018310546875,-0.0711669921875,-0.99871826171875,-21.116104125976562,31.320724487304688,-231.83419799804688,2023-10-26 02:30:02.9430,1698280202.9429522,-0.11029311269521713,-0.21737252175807953,0.3283751308917999,0.09233114123344421,-0.11621090769767761,-0.8838043212890625,
0,2023-10-26 02:30:00.1410,00:13,60,0,2023-10-26 02:30:01.7840,1698280201.783746,0.012025237083435059,-0.007023554760962725,0.00018455706594977528,0.0004425048828125,-0.0724029541015625,-1.001800537109375,-21.212966918945312,31.555770874023438,-231.61521911621094,2023-10-26 02:30:02.9730,1698280202.9726949,-0.4216403365135193,-0.13485261797904968,0.39260995388031006,0.10630819201469421,-0.02674863487482071,-0.9740447998046875,
0,2023-10-26 02:30:00.1410,00:13,60,0,2023-10-26 02:30:01.8000,1698280201.800159,0.01401595026254654,-0.005705556366592646,-0.00047936898772604764,-0.000640869140625,-0.0701446533203125,-1.00213623046875,-21.13702392578125,31.5286865234375,-231.68109130859375,2023-10-26 02:30:03.0030,1698280203.002547,-0.704873263835907,-0.11381956934928894,0.13634882867336273,0.10673543810844421,-0.0801849216222763,-1.0066680908203125,
0,2023-10-26 02:30:00.1410,00:13,60,0,2023-10-26 02:30:01.8170,1698280201.8170261,0.01269635371863842,-0.004824049770832062,-0.0010516822803765535,0.0002288818359375,-0.073760986328125,-1.0016632080078125,-21.133438110351562,31.487472534179688,-231.582275390625,2023-10-26 02:30:03.0320,1698280203.0323238,-0.3803439736366272,-0.055606596171855927,-0.10434015840291977,0.15683003515005112,-0.1519775167107582,-1.0614165663719177,
0,2023-10-26 02:30:00.1410,00:13,60,0,2023-10-26 02:30:01.8340,1698280201.8335571,0.013635651208460331,-0.0062280683778226376,-0.0004367584188003093,0.00042724609375,-0.0714569091796875,-0.99835205078125,-21.238006591796875,31.418121337890625,-231.9788055419922,2023-10-26 02:30:03.0620,1698280203.062158,-0.19195787608623505,-0.06960464268922806,-0.14306795597076416,0.1619570031762123,-0.11398313194513321,-1.05963134765625,
0,2023-10-26 02:30:00.1410,00:13,60,0,2023-10-26 02:30:01.8500,1698280201.850268,0.009700563736259937,-0.0031156321056187153,-0.0013323795283213258,1.52587890625e-05,-0.07269287109375,-1.00018310546875,-21.251327514648438,31.458145141601562,-231.43798828125,2023-10-26 02:30:03.0950,1698280203.095397,-0.3541426956653595,-0.1864924430847168,-0.06821262836456299,0.08126851916313171,-0.04875181242823601,-1.0302123427391052,
0,2023-10-26 02:30:00.1410,00:13,60,0,2023-10-26 02:30:01.8670,1698280201.866797,0.011622567661106586,-0.005535646807402372,0.0015992282424122095,0.0024261474609375,-0.0746307373046875,-1.0045166015625,-21.251327514648438,31.458145141601562,-231.43798828125,2023-10-26 02:30:03.1220,1698280203.12184,-0.09798677265644073,-0.1664610058069229,-0.10404710471630096,0.044738978147506714,-0.1495971605181694,-1.0247344374656677,
0,2023-10-26 02:30:00.1410,00:13,60,0,2023-10-26 02:30:01.8840,1698280201.883556,0.00546294217929244,-0.006604905705899,0.0009265137487091124,0.0010223388671875,-0.0751800537109375,-0.9981231689453125,-21.20965576171875,31.515289306640625,-231.75006103515625,2023-10-26 02:30:03.1510,1698280203.1514459,0.11735916137695312,-0.16007694602012634,-0.14074744284152985,0.10462972521781921,-0.12202451750636101,-1.0240325331687927,
0,2023-10-26 02:30:00.1410,00:13,60,0,2023-10-26 02:30:01.9000,1698280201.899986,0.0035393410362303257,-0.0046482812613248825,-0.0003371562052052468,-7.62939453125e-05,-0.0716400146484375,-1.001556396484375,-21.287384033203125,31.6868896484375,-231.92520141601562,2023-10-26 02:30:03.1810,1698280203.181285,0.05512121692299843,-0.055834297090768814,-0.08284317702054977,0.11190817505121231,-0.06248472258448601,-1.0189666152000427,
0,2023-10-26 02:30:00.1410,00:13,60,0,2023-10-26 02:30:01.9170,1698280201.91685,0.006974552292376757,-0.0035302862524986267,-0.0005715143634006381,-0.0007781982421875,-0.07379150390625,-1.00140380859375,-21.292953491210938,31.731231689453125,-232.2379608154297,2023-10-26 02:30:03.2110,1698280203.21106,-0.0149530079215765,-0.18203984200954437,-0.16496655344963074,0.07247945666313171,-0.03814695402979851,-1.0138396620750427,
0,2023-10-26 02:30:00.1410,00:13,60,0,2023-10-26 02:30:01.9330,1698280201.933488,0.008980978280305862,-0.007044860161840916,0.0013856426812708378,0.001434326171875,-0.0729827880859375,-1.0019683837890625,-21.265533447265625,31.50604248046875,-231.6129913330078,2023-10-26 02:30:03.2410,1698280203.240938,0.0035499022342264652,-0.19935843348503113,-0.3352511525154114,0.06533835083246231,-0.1364440731704235,-1.0429534912109375,
0,2023-10-26 02:30:00.1410,00:13,60,0,2023-10-26 02:30:01.9500,1698280201.950234,0.0038093857001513243,-0.005071191117167473,0.0011970909545198083,0.00128173828125,-0.0729522705078125,-1.000701904296875,-21.265533447265625,31.50604248046875,-231.6129913330078,2023-10-26 02:30:03.2710,1698280203.270609,0.2194436490535736,0.14213544130325317,-0.4708576500415802,0.1395113244652748,-0.1725921481847763,-1.1141662001609802,
0,2023-10-26 02:30:00.1410,00:13,60,0,2023-10-26 02:30:01.9670,1698280201.9668322,0.004256530199199915,-0.008042479865252972,0.0009701895760372281,0.0002593994140625,-0.0746612548828125,-1.0003662109375,-21.101669311523438,31.510025024414062,-231.7596435546875,2023-10-26 02:30:03.3000,1698280203.300496,0.1759767234325409,0.3648725152015686,-0.8007921576499939,0.1443178430199623,-0.11399838700890541,-1.0928344130516052,
0,2023-10-26 02:30:00.1410,00:13,60,0,2023-10-26 02:30:01.9840,1698280201.9835382,0.009324791841208935,-0.007188937161117792,0.0024612934794276953,-0.000579833984375,-0.0710906982421875,-1.00164794921875,-21.160507202148438,31.57489013671875,-231.8795623779297,2023-10-26 02:30:03.3300,1698280203.330236,0.15183037519454956,0.3286636471748352,-1.123105525970459,0.07870504260063171,-0.1273650787770748,-1.1116790175437927,
0,2023-10-26 02:30:00.1410,00:13,60,0,2023-10-26 02:30:02.0000,1698280202.0001578,0.00845819991081953,-0.0034171019215136766,-0.00012729909212794155,0.0004119873046875,-0.072357177734375,-0.9986114501953125,-21.26922607421875,31.755355834960938,-232.02378845214844,2023-10-26 02:30:03.3600,1698280203.360036,0.4003635048866272,-0.07928948849439621,-1.2847974300384521,0.048095911741256714,-0.09796138107776642,-1.1260680556297302,
0,2023-10-26 02:30:00.1410,00:13,60,0,2023-10-26 02:30:02.0170,1698280202.017029,0.007214503362774849,-0.007546333130449057,0.000815193576272577,0.0009002685546875,-0.072357177734375,-1.002685546875,-21.322967529296875,31.581085205078125,-232.0609588623047,2023-10-26 02:30:03.3900,1698280203.389861,0.582058310508728,0.22041434049606323,-1.4750487804412842,0.08496114611625671,-0.17044062167406082,-1.1470184326171875,
0,2023-10-26 02:30:00.1410,00:13,60,0,2023-10-26 02:30:02.0340,1698280202.03363,0.004430701024830341,-0.008361526764929295,0.00267807487398386,0.00079345703125,-0.0732879638671875,-1.000396728515625,-21.31842041015625,31.465484619140625,-231.673583984375,2023-10-26 02:30:03.4200,1698280203.419662,1.0625256299972534,0.1209673061966896,-0.4885573089122772,0.1689302623271942,-0.13842766731977463,-1.140106201171875,
0,2023-10-26 02:30:00.1410,00:13,60,0,2023-10-26 02:30:02.0500,1698280202.050287,0.004935636185109615,-0.0041033984161913395,-0.00017789915727917105,0.000640869140625,-0.074005126953125,-1.0009918212890625,-21.31842041015625,31.465484619140625,-231.673583984375,2023-10-26 02:30:03.4490,1698280203.449449,1.0810388326644897,0.5403274893760681,0.8185708522796631,0.2594911605119705,-0.11939996480941772,-1.1030120253562927,
0,2023-10-26 02:30:00.1410,00:13,60,0,2023-10-26 02:30:02.0670,1698280202.066838,0.007928230799734592,-0.006652842741459608,0.00034354778472334146,-0.0001983642578125,-0.070556640625,-0.9993896484375,-21.306243896484375,31.77099609375,-231.8050537109375,2023-10-26 02:30:03.4790,1698280203.47926,0.9311308860778809,0.32714250683784485,0.3694021999835968,0.2382814586162567,-0.06947320699691772,-1.1078033447265625,
0,2023-10-26 02:30:00.1410,00:13,60,0,2023-10-26 02:30:02.0840,1698280202.0835361,0.008881908841431141,-0.005518868565559387,0.0021840583067387342,-0.0001983642578125,-0.070556640625,-0.9993896484375,-21.234817504882812,31.42413330078125,-232.01974487304688,2023-10-26 02:30:03.5090,1698280203.509079,0.581835150718689,0.3008151054382324,-0.7402340769767761,0.2304689586162567,-0.11138908565044403,-1.0251007080078125,
0,2023-10-26 02:30:00.1410,00:13,60,0,2023-10-26 02:30:02.1000,1698280202.100169,0.00675271125510335,-0.006071740761399269,-0.0012889700010418892,0.001312255859375,-0.0725860595703125,-0.9986419677734375,-21.13934326171875,31.51226806640625,-232.075927734375,2023-10-26 02:30:03.5390,1698280203.538869,0.24404028058052063,0.16538941860198975,-0.3034375011920929,0.22230549156665802,-0.18623343110084534,-0.8786620497703552,
0,2023-10-26 02:30:00.1410,00:13,60,0,2023-10-26 02:30:02.1170,1698280202.1170511,0.0062392535619437695,-0.003424825146794319,0.0025595640763640404,0.000732421875,-0.074554443359375,-0.9985809326171875,-21.287307739257812,31.653335571289062,-232.20094299316406,2023-10-26 02:30:03.5690,1698280203.568649,-0.13649208843708038,1.3061109781265259,0.47396424412727356,0.14201374351978302,-0.33500663936138153,-0.878204345703125,
0,2023-10-26 02:30:00.1410,00:13,60,0,2023-10-26 02:30:02.1340,1698280202.133533,0.00720518222078681,-0.004778243601322174,0.00039015308720991015,7.62939453125e-05,-0.068878173828125,-1.0013427734375,-21.252593994140625,31.569869995117188,-231.53648376464844,2023-10-26 02:30:03.5980,1698280203.598448,-0.612071692943573,2.9200713634490967,-1.1414668560028076,0.07319658994674683,-0.30137625336647034,-0.9750365614891052,
0,2023-10-26 02:30:00.1410,00:13,60,0,2023-10-26 02:30:02.1500,1698280202.1502109,0.0032288164366036654,-0.005067196674644947,0.0008103998843580484,7.62939453125e-05,-0.068878173828125,-1.0013427734375,-21.252593994140625,31.569869995117188,-231.53648376464844,2023-10-26 02:30:03.6280,1698280203.628251,-0.18007545173168182,1.6326645612716675,-5.063785076141357,0.18139666318893433,0.020004361867904663,-0.8823851943016052,
0,2023-10-26 02:30:00.1410,00:13,60,0,2023-10-26 02:30:02.1670,1698280202.16685,0.012577577494084835,-0.0023523701820522547,-0.0020301276817917824,0.0006256103515625,-0.07440185546875,-0.9992828369140625,-21.095748901367188,31.55523681640625,-232.0660400390625,2023-10-26 02:30:03.6580,1698280203.658051,-0.12622547149658203,1.950964093208313,-6.062591552734375,0.25613418221473694,-0.13618458062410355,-0.8742827773094177,
0,2023-10-26 02:30:00.1410,00:13,60,0,2023-10-26 02:30:02.1840,1698280202.183569,0.004026699345558882,-0.0007451524725183845,-0.00039734362508170307,0.0010833740234375,-0.072357177734375,-1.00469970703125,-21.1826171875,31.6083984375,-232.02432250976562,2023-10-26 02:30:03.6880,1698280203.6879869,0.22667479515075684,1.5847065448760986,-4.55650520324707,0.32231152057647705,0.018173351418226957,-0.8694915175437927,
0,2023-10-26 02:30:00.1410,00:13,60,0,2023-10-26 02:30:02.2000,1698280202.200098,0.012343218550086021,-0.007126885466277599,-0.0011110707418993115,0.000579833984375,-0.0734405517578125,-0.9958953857421875,-21.184097290039062,31.313552856445312,-232.23794555664062,2023-10-26 02:30:03.7180,1698280203.717623,0.2694683372974396,1.1187320947647095,-2.9214746952056885,0.31794747710227966,0.18081679940223694,-0.792129397392273,
0,2023-10-26 02:30:00.1410,00:13,60,0,2023-10-26 02:30:02.2170,1698280202.217032,0.0036964674945920706,-0.0037555897142738104,0.00373028963804245,0.001495361328125,-0.071929931640625,-1.0077972412109375,-21.241592407226562,31.429244995117188,-232.08819580078125,2023-10-26 02:30:03.7470,1698280203.7474961,-0.03828343003988266,0.5354837775230408,-2.931527853012085,0.3915711045265198,0.15467849373817444,-0.5960540175437927,
0,2023-10-26 02:30:00.1410,00:13,60,0,2023-10-26 02:30:02.2340,1698280202.233642,0.009217467159032822,-0.004491953644901514,0.00216568261384964,0.0005340576171875,-0.0710906982421875,-0.9964141845703125,-21.241592407226562,31.429244995117188,-232.08819580078125,2023-10-26 02:30:03.7770,1698280203.7772942,-0.2035703957080841,-0.17732945084571838,-4.357205867767334,0.3225250542163849,0.10307328402996063,-0.5829314589500427,
0,2023-10-26 02:30:00.1410,00:13,60,0,2023-10-26 02:30:02.2500,1698280202.250274,0.00926274061203003,-0.008351673372089863,0.0010317085543647408,-0.0001373291015625,-0.0717926025390625,-1.00115966796875,-21.00738525390625,31.383102416992188,-231.82395935058594,2023-10-26 02:30:03.8070,1698280203.8070269,-0.4754824638366699,-0.27564653754234314,-7.117286682128906,-0.1236114501953125,0.24217239022254944,-0.813186526298523,
0,2023-10-26 02:30:00.1410,00:13,60,0,2023-10-26 02:30:02.2670,1698280202.266839,0.010554905980825424,-0.0019680759869515896,-0.00020586235041264445,-1.52587890625e-05,-0.07342529296875,-0.999237060546875,-21.245361328125,31.733474731445312,-232.26901245117188,2023-10-26 02:30:03.8370,1698280203.836862,-0.5889056921005249,-0.6399981379508972,-9.62133502960205,0.04965206980705261,0.34365859627723694,-0.750167727470398,
0,2023-10-26 02:30:00.1410,00:13,60,0,2023-10-26 02:30:02.2840,1698280202.283599,0.010554905980825424,-0.0019680759869515896,-0.00020586235041264445,0.0012664794921875,-0.071441650390625,-1.001251220703125,-21.314361572265625,31.582626342773438,-232.29937744140625,2023-10-26 02:30:03.8670,1698280203.86657,-0.009851857088506222,-1.724293828010559,-9.790029525756836,0.10426323115825653,0.10414138436317444,-0.6164855360984802,
0,2023-10-26 02:30:00.1410,00:13,60,0,2023-10-26 02:30:02.3000,1698280202.300163,0.00890667550265789,-0.004739361349493265,0.002603239845484495,0.0004425048828125,-0.0726165771484375,-1.0006103515625,-21.1478271484375,31.386856079101562,-232.34524536132812,2023-10-26 02:30:03.8960,1698280203.8964338,-0.6379960775375366,-3.013749122619629,-7.561604022979736,0.030807413160800934,0.01887527108192444,-0.5953673720359802,
0,2023-10-26 02:30:00.1410,00:13,60,0,2023-10-26 02:30:02.3170,1698280202.316946,0.0073045180179178715,-0.006883738562464714,0.000865793670527637,0.0010528564453125,-0.07513427734375,-1.0032196044921875,-21.146728515625,31.565597534179688,-232.05020141601562,2023-10-26 02:30:03.9260,1698280203.926361,0.126426100730896,-0.8937295079231262,-4.787618637084961,-0.27667246013879776,0.7244263589382172,-1.0758055448532104,
0,2023-10-26 02:30:00.1410,00:13,60,0,2023-10-26 02:30:02.3330,1698280202.333478,0.008007592521607876,0.001181644620373845,0.0007962851668708026,0.0010833740234375,-0.071563720703125,-0.9982452392578125,-21.146728515625,31.565597534179688,-232.05020141601562,2023-10-26 02:30:03.9560,1698280203.956013,0.42612093687057495,-1.465079665184021,-2.340658664703369,0.17185966670513153,1.0365296602249146,-0.815627932548523,
0,2023-10-26 02:30:00.1410,00:13,60,0,2023-10-26 02:30:02.3500,1698280202.3504539,0.013439642265439034,-0.007681355345994234,-0.0014407701091840863,-4.57763671875e-05,-0.0719757080078125,-1.000946044921875,-21.242813110351562,31.382064819335938,-232.11058044433594,2023-10-26 02:30:03.9860,1698280203.98582,0.4929286539554596,0.04591389745473862,-1.2978719472885132,0.17895500361919403,0.38027963042259216,-0.986343264579773,
0,2023-10-26 02:30:00.1410,00:13,60,0,2023-10-26 02:30:02.3670,1698280202.3668709,0.005752161610871553,-0.002775280037894845,-0.0009552759001962841,0.000579833984375,-0.0718841552734375,-1.0023040771484375,-21.174530029296875,31.50469970703125,-231.81765747070312,2023-10-26 02:30:04.0160,1698280204.015645,0.44976165890693665,1.3461949825286865,-0.9357824921607971,-0.04901130497455597,0.3767700791358948,-0.949172854423523,
0,2023-10-26 02:30:00.1410,00:13,60,0,2023-10-26 02:30:02.3840,1698280202.383632,0.006988933775573969,-0.014916897751390934,-0.0009443568997085094,0.001251220703125,-0.0724945068359375,-1.00201416015625,-21.301712036132812,31.717269897460938,-231.97348022460938,2023-10-26 02:30:04.0460,1698280204.045815,0.030816543847322464,0.5291579365730286,-1.4927388429641724,-0.20640574395656586,0.46672070026397705,-0.965255618095398,
0,2023-10-26 02:30:00.1410,00:13,60,0,2023-10-26 02:30:02.4000,1698280202.400028,0.0034815503749996424,-0.016887636855244637,0.001088433898985386,0.0002288818359375,-0.074981689453125,-1.004852294921875,-21.183792114257812,31.46038818359375,-231.81690979003906,2023-10-26 02:30:04.0760,1698280204.0755649,0.26665717363357544,0.533635139465332,-2.5357751846313477,-0.22161877155303955,0.38560494780540466,-1.022628664970398,
0,2023-10-26 02:30:00.1410,00:13,60,0,2023-10-26 02:30:02.4150,1698280202.4152532,0.0046964846551418304,-0.019120430573821068,0.0020594224333763123,0.0014801025390625,-0.0713348388671875,-1.0004425048828125,-21.230239868164062,31.3662109375,-231.16351318359375,2023-10-26 02:30:04.1050,1698280204.105268,0.989324688911438,0.22408831119537354,-2.690089702606201,-0.24388134479522705,0.5631256699562073,-1.0590209364891052,
0,2023-10-26 02:30:00.1410,00:13,60,0,2023-10-26 02:30:02.4340,1698280202.434267,0.010234528221189976,-0.008980711922049522,7.962851668708026e-05,-0.001739501953125,-0.0706939697265625,-1.0019683837890625,-21.230239868164062,31.3662109375,-231.16351318359375,2023-10-26 02:30:04.1350,1698280204.1348429,0.9100755453109741,-0.2054663896560669,-2.805419683456421,-0.36853039264678955,0.38156136870384216,-0.9453124403953552,
0,2023-10-26 02:30:00.1410,00:13,60,0,2023-10-26 02:30:02.4500,1698280202.450389,0.004477306269109249,-0.011471300385892391,0.002234392100945115,0.00018310546875,-0.0717315673828125,-0.999725341796875,-21.236770629882812,31.714096069335938,-232.00439453125,2023-10-26 02:30:04.1650,1698280204.164643,1.135337233543396,0.7536953091621399,-3.504502058029175,-0.30725109577178955,-0.024795442819595337,-0.9121398329734802,
0,2023-10-26 02:30:00.1410,00:13,60,0,2023-10-26 02:30:02.4670,1698280202.4670439,0.010174074210226536,-0.01019537914544344,0.002406165935099125,-0.0005035400390625,-0.069793701171875,-0.99981689453125,-21.317245483398438,31.456985473632812,-231.81033325195312,2023-10-26 02:30:04.1940,1698280204.194407,1.4484498500823975,0.7182992100715637,-3.517596960067749,-0.27706924080848694,0.01188667118549347,-0.865280032157898,
0,2023-10-26 02:30:00.1410,00:13,60,0,2023-10-26 02:30:02.4840,1698280202.483716,0.0071127708069980145,-0.0037529265973716974,-0.001463406952098012,0.0,-0.0718231201171875,-1.0003814697265625,-21.387741088867188,31.664596557617188,-232.036865234375,2023-10-26 02:30:04.2240,1698280204.2242131,1.1795984506607056,0.34821850061416626,-2.3765015602111816,-0.3745118975639343,0.2954254820942879,-1.0231322646141052,
0,2023-10-26 02:30:00.1410,00:13,60,0,2023-10-26 02:30:02.5000,1698280202.5001369,0.007131945341825485,-0.0062943813391029835,-0.0020122844725847244,0.0005340576171875,-0.0721282958984375,-1.002655029296875,-21.337783813476562,31.572219848632812,-232.36317443847656,2023-10-26 02:30:04.2540,1698280204.2541351,0.9597371220588684,1.425646185874939,-1.5949161052703857,-0.2738038897514343,0.13475042581558228,-0.9891509413719177,
0,2023-10-26 02:30:00.1410,00:13,60,0,2023-10-26 02:30:02.5170,1698280202.517058,0.006729009095579386,-0.007269097957760096,-0.00185063062235713,-0.0001373291015625,-0.0718994140625,-0.999969482421875,-21.5657958984375,31.373382568359375,-231.753662109375,2023-10-26 02:30:04.2840,1698280204.283761,1.5136297941207886,1.8371855020523071,-1.4918403625488281,-0.20510883629322052,-0.06813042983412743,-0.8973998427391052,
0,2023-10-26 02:30:00.1410,00:13,60,0,2023-10-26 02:30:02.5340,1698280202.533616,0.00802943017333746,-0.0062858592718839645,-6.73779723001644e-05,-0.0011138916015625,-0.0729827880859375,-1.0012054443359375,-21.5657958984375,31.373382568359375,-231.753662109375,2023-10-26 02:30:04.3140,1698280204.313583,-0.9732417464256287,1.0474740266799927,0.06233169883489609,-0.2568818926811218,0.00012213317677378654,-1.0806273818016052,
0,2023-10-26 02:30:00.1410,00:13,60,0,2023-10-26 02:30:02.5500,1698280202.550386,0.007742607966065407,-0.0029814087320119143,0.0020335898734629154,-0.0004119873046875,-0.0708465576171875,-0.998809814453125,-21.54803466796875,31.579208374023438,-232.1214141845703,2023-10-26 02:30:04.3430,1698280204.343409,-1.2921754121780396,0.4564468562602997,-0.13298964500427246,-0.340927317738533,0.22160345315933228,-1.0236968398094177,
0,2023-10-26 02:30:00.1410,00:13,60,0,2023-10-26 02:30:02.5670,1698280202.5670462,0.00894129741936922,-0.007920773699879646,0.00119575927965343,0.0004730224609375,-0.0729827880859375,-1.0031280517578125,-21.556854248046875,31.343643188476562,-232.1256866455078,2023-10-26 02:30:04.3730,1698280204.373198,0.5383380055427551,1.4608439207077026,-0.3681461215019226,-0.2518007457256317,0.24145512282848358,-1.2476958632469177,
0,2023-10-26 02:30:00.1410,00:13,60,0,2023-10-26 02:30:02.5840,1698280202.583812,0.00806298665702343,-0.009240103885531425,0.00018269284919369966,0.0003509521484375,-0.0714263916015625,-1.0019989013671875,-21.593597412109375,31.505523681640625,-232.53375244140625,2023-10-26 02:30:04.4030,1698280204.402909,-0.29405269026756287,0.9751754403114319,-0.3774505853652954,-0.08392354100942612,0.02442936971783638,-0.9208983778953552,
0,2023-10-26 02:30:00.1410,00:13,60,0,2023-10-26 02:30:02.6000,1698280202.600247,0.007553257513791323,-0.009099222719669342,-0.0032290827948600054,0.0003509521484375,-0.0714263916015625,-1.0019989013671875,-21.491058349609375,31.321136474609375,-232.44400024414062,2023-10-26 02:30:04.4330,1698280204.432818,-0.46746423840522766,0.660142183303833,-0.49279385805130005,-0.12287923693656921,-0.08924861252307892,-0.9759063124656677,
0,2023-10-26 02:30:00.1410,00:13,60,0,2023-10-26 02:30:02.6160,1698280202.61619,0.010203635320067406,-0.00580648984760046,-0.0008729841792955995,-0.0006256103515625,-0.072479248046875,-1.0003509521484375,-21.491058349609375,31.321136474609375,-232.44400024414062,2023-10-26 02:30:04.4630,1698280204.462601,-0.778609573841095,-0.0413307249546051,-0.7733292579650879,-0.06965658813714981,-0.0009917840361595154,-1.0619354248046875,
0,2023-10-26 02:30:00.1410,00:13,60,0,2023-10-26 02:30:02.6340,1698280202.6337662,0.004534298088401556,-0.007786017842590809,0.0007898935582488775,-0.00115966796875,-0.0715179443359375,-0.99957275390625,-21.5775146484375,31.346115112304688,-232.1136016845703,2023-10-26 02:30:04.4920,1698280204.4924412,-0.2754674255847931,0.3591528534889221,-0.5332995653152466,-0.1394655480980873,0.05938723683357239,-1.1678008437156677,
0,2023-10-26 02:30:00.1410,00:13,60,0,2023-10-26 02:30:02.6500,1698280202.65035,0.01218689139932394,-0.007936219684779644,0.000758734589908272,-0.0001068115234375,-0.0710296630859375,-1.00128173828125,-21.636276245117188,31.4490966796875,-232.41127014160156,2023-10-26 02:30:04.5220,1698280204.522174,-0.003617796115577221,2.2698209285736084,-0.15118883550167084,-0.10699484497308731,0.1631622537970543,-0.9633941054344177,
0,2023-10-26 02:30:00.1410,00:13,60,0,2023-10-26 02:30:02.6670,1698280202.666741,0.0033686324022710323,-0.006129531655460596,-0.0005699164466932416,-0.0001068115234375,-0.0710296630859375,-1.00128173828125,-21.820755004882812,31.848709106445312,-232.5888214111328,2023-10-26 02:30:04.5520,1698280204.551993,-0.05667588487267494,2.680987596511841,0.18891435861587524,0.209701307117939,0.7733917683362961,-1.073974609375,
0,2023-10-26 02:30:00.1410,00:13,60,0,2023-10-26 02:30:02.6840,1698280202.683669,0.009851565584540367,-0.005905293393880129,0.004174504894763231,-0.000762939453125,-0.073883056640625,-0.9987030029296875,-21.88720703125,31.546783447265625,-232.77940368652344,2023-10-26 02:30:04.5820,1698280204.581933,-0.301688551902771,-1.1303646564483643,-0.05520782247185707,0.295058973133564,0.09240725636482239,-0.828338623046875,
0,2023-10-26 02:30:00.1410,00:13,60,0,2023-10-26 02:30:02.7000,1698280202.69996,0.006531136110424995,-0.008445416577160358,0.0007869640830904245,-0.00048828125,-0.0716400146484375,-1.0014801025390625,-21.889907836914062,31.477371215820312,-232.59669494628906,2023-10-26 02:30:04.6120,1698280204.611599,-0.1460323929786682,-1.8769850730895996,-0.09014870971441269,0.06033302657306194,0.12388613820075989,-1.0008697509765625,
0,2023-10-26 02:30:00.1410,00:13,60,0,2023-10-26 02:30:02.7170,1698280202.716992,0.003984089009463787,-0.00612154183909297,0.0013515542959794402,0.00067138671875,-0.0732879638671875,-1.0017547607421875,-21.889907836914062,31.477371215820312,-232.59669494628906,2023-10-26 02:30:04.6410,1698280204.641371,-0.02343437634408474,0.5139541625976562,0.03258839622139931,-0.13945030071772635,0.09222415089607239,-1.0445404052734375,
0,2023-10-26 02:30:00.1410,00:13,60,0,2023-10-26 02:30:02.7340,1698280202.733608,0.006324741058051586,-0.005195294506847858,-3.1957933970261365e-06,-0.0001983642578125,-0.0704498291015625,-1.001434326171875,-22.030075073242188,31.4107666015625,-232.561279296875,2023-10-26 02:30:04.6710,1698280204.671185,0.10129030793905258,0.7622674703598022,0.03412706404924393,0.031493913382291794,0.09667970985174179,-1.0205078125,
0,2023-10-26 02:30:00.1410,00:13,60,0,2023-10-26 02:30:02.7500,1698280202.7500482,0.008705341257154942,-0.00836552120745182,-0.0020671456586569548,-0.001068115234375,-0.07220458984375,-0.999786376953125,-21.943191528320312,31.346343994140625,-232.5943145751953,2023-10-26 02:30:04.7010,1698280204.7009969,0.014225049875676632,-0.5668236613273621,-0.03626757860183716,0.10807777941226959,0.08210757374763489,-0.9598388671875,
0,2023-10-26 02:30:00.1410,00:13,60,0,2023-10-26 02:30:02.7670,1698280202.76667,0.005711681675165892,-0.005218730308115482,-0.003054911969229579,0.0005950927734375,-0.0725250244140625,-1.001434326171875,-22.142776489257812,31.446563720703125,-233.0057373046875,2023-10-26 02:30:04.7310,1698280204.7308378,-0.009259436279535294,-0.14122022688388824,-0.006248109508305788,-0.018371807411313057,0.08375552296638489,-1.0066680908203125,
0,2023-10-26 02:30:00.1410,00:13,60,0,2023-10-26 02:30:02.7840,1698280202.783622,0.0061521683819592,-0.007559649180620909,0.0018072210950776935,-0.001129150390625,-0.0698089599609375,-1.0018310546875,-22.190872192382812,31.339508056640625,-233.14093017578125,2023-10-26 02:30:04.7610,1698280204.7605639,0.023964563384652138,0.3203601837158203,0.014362413436174393,0.013625871390104294,0.09054568409919739,-1.000518798828125,
0,2023-10-26 02:30:00.1410,00:13,60,0,2023-10-26 02:30:02.8000,1698280202.800062,0.0061521683819592,-0.007559649180620909,0.0018072210950776935,0.00079345703125,-0.0751800537109375,-1.0020904541015625,-22.3292236328125,31.120742797851562,-232.92819213867188,2023-10-26 02:30:04.7900,1698280204.7903662,0.01214086078107357,-0.19601711630821228,-0.013170091435313225,0.060424577444791794,0.09193423390388489,-0.9859619140625,
0,2023-10-26 02:30:00.1410,00:13,60,0,2023-10-26 02:30:02.8170,1698280202.81702,0.006178533658385277,-0.00321816373616457,0.002834402257576585,-0.0017547607421875,-0.07159423828125,-1.00054931640625,-22.3292236328125,31.120742797851562,-232.92819213867188,2023-10-26 02:30:04.8200,1698280204.820137,0.00026702365721575916,0.0034814891405403614,-0.0019924319349229336,0.008682025596499443,0.09312441945075989,-1.004974365234375,
0,2023-10-26 02:30:00.1410,00:13,60,0,2023-10-26 02:30:02.8330,1698280202.8334742,0.012226572260260582,-0.001603222917765379,0.0013723268639296293,-0.0009002685546875,-0.0773468017578125,-0.9989013671875,-22.315093994140625,31.02032470703125,-232.8340301513672,2023-10-26 02:30:04.8500,1698280204.8499699,-0.010374701581895351,0.1034885123372078,0.005767966620624065,0.03234840743243694,0.09233096241950989,-0.99688720703125,
0,2023-10-26 02:30:00.1410,00:13,60,0,2023-10-26 02:30:02.8500,1698280202.850009,0.004485828336328268,-0.010185525752604008,-0.0036599822342395782,-0.0004730224609375,-0.073486328125,-1.0010528564453125,-22.426925659179688,31.280807495117188,-233.3635711669922,2023-10-26 02:30:04.8800,1698280204.879726,0.007313947658985853,-0.10531656444072723,-0.006617863196879625,0.039474260061979294,0.09403994679450989,-0.995147705078125,
0,2023-10-26 02:30:00.1410,00:13,60,0,2023-10-26 02:30:02.8670,1698280202.866741,-0.0008644621120765805,-0.024826519191265106,-0.0035577169619500637,0.0036468505859375,-0.0697479248046875,-0.9994659423828125,-22.417694091796875,31.197525024414062,-233.40338134765625,2023-10-26 02:30:04.9100,1698280204.909637,0.00145825557410717,0.07712694257497787,-0.0023341684136539698,0.018890155479311943,0.09210208058357239,-0.9997711181640625,
0,2023-10-26 02:30:00.1410,00:13,60,0,2023-10-26 02:30:02.8820,1698280202.8820848,0.0076360818929970264,-0.0017387778498232365,0.006176669616252184,-0.0013885498046875,-0.053436279296875,-0.9979400634765625,-22.271713256835938,31.204833984375,-232.98281860351562,2023-10-26 02:30:04.9390,1698280204.939331,-0.12603113055229187,-1.2590351104736328,-0.19927753508090973,-0.2497408352792263,0.08734134584665298,-0.71307373046875,
0,2023-10-26 02:30:00.1410,00:13,60,0,2023-10-26 02:30:02.9000,1698280202.900158,0.010005496442317963,0.004200603812932968,0.0010287790792062879,0.000335693359375,-0.0734405517578125,-1.0123138427734375,-22.343215942382812,31.298141479492188,-232.90725708007812,2023-10-26 02:30:04.9690,1698280204.969145,-0.30801305174827576,-0.05641460418701172,-0.38396748900413513,-0.2088320143520832,0.004135169088840485,-0.955169677734375,
0,2023-10-26 02:30:00.1410,00:13,60,0,2023-10-26 02:30:02.9170,1698280202.916864,0.007800398860126734,-0.01569933444261551,0.000523577444255352,-0.002288818359375,-0.0721435546875,-0.99249267578125,-22.343215942382812,31.298141479492188,-232.90725708007812,2023-10-26 02:30:04.9990,1698280204.99881,-0.2529010474681854,-0.5697373151779175,-0.18087147176265717,0.21800209023058414,0.0906982570886612,-1.0419616103172302,
0,2023-10-26 02:30:00.1410,00:13,60,0,2023-10-26 02:30:02.9330,1698280202.933487,0.007741542998701334,-0.011173025704920292,0.0016594156622886658,-0.0033721923828125,-0.06756591796875,-0.9988555908203125,-22.332992553710938,31.12261962890625,-232.77980041503906,2023-10-26 02:30:05.0290,1698280205.028987,-0.4791125953197479,0.16238512098789215,-0.37181347608566284,-0.006988752633333206,0.00920107215642929,-0.987213134765625,
0,2023-10-26 02:30:00.1410,00:13,60,0,2023-10-26 02:30:02.9500,1698280202.950152,0.006439256947487593,0.004535895772278309,0.0014381069922819734,0.0009765625,-0.07305908203125,-1.0054931640625,-22.451644897460938,31.418930053710938,-233.58670043945312,2023-10-26 02:30:05.0590,1698280205.058744,0.29027262330055237,-0.0683603435754776,-1.6394033432006836,-0.01036094594746828,-0.5015411078929901,-1.0697784423828125,
0,2023-10-26 02:30:00.1410,00:13,60,0,2023-10-26 02:30:02.9670,1698280202.9667659,0.010337858460843563,-0.005835518706589937,-0.0017563547007739544,-0.000244140625,-0.07281494140625,-1.001739501953125,-22.355484008789062,31.370285034179688,-232.97377014160156,2023-10-26 02:30:05.0880,1698280205.088387,-0.004004087299108505,-0.2985820472240448,-2.773024797439575,-0.14410422777291387,0.1133575439453125,-0.904449462890625,
0,2023-10-26 02:30:00.1410,00:13,60,0,2023-10-26 02:30:02.9840,1698280202.9835181,0.008890963159501553,-0.009219863452017307,-0.0005864280392415822,-0.001739501953125,-0.07073974609375,-0.9952545166015625,-22.219100952148438,31.334808349609375,-233.06105041503906,2023-10-26 02:30:05.1180,1698280205.118153,-0.14255882799625397,0.09490460902452469,-1.323499083518982,-0.0047609684988856316,0.3078460618853569,-0.9959869384765625,
0,2023-10-26 02:30:00.1410,00:13,60,0,2023-10-26 02:30:03.0000,1698280203.0000448,0.011144263669848442,-0.0009749832679517567,-7.456851017195731e-05,-0.0002288818359375,-0.0726318359375,-1.00213623046875,-22.219100952148438,31.334808349609375,-233.06105041503906,2023-10-26 02:30:05.1480,1698280205.148097,0.021543417125940323,0.1356380581855774,-0.16789431869983673,-0.004913555458188057,0.1043853610754013,-0.996063232421875,
0,2023-10-26 02:30:00.1410,00:13,60,0,2023-10-26 02:30:03.0170,1698280203.0170488,0.011150655336678028,-5.965480886516161e-05,0.0014956312952563167,0.0003204345703125,-0.0726165771484375,-1.0040130615234375,-22.307540893554688,31.302154541015625,-232.90586853027344,2023-10-26 02:30:05.1780,1698280205.177747,0.03613993525505066,0.14694930613040924,-0.09071569889783859,-0.12263511121273041,-0.023300178349018097,-1.0243988037109375,
0,2023-10-26 02:30:00.1410,00:13,60,0,2023-10-26 02:30:03.0330,1698280203.033414,0.009021724574267864,-0.01002360600978136,0.0011193265672773123,-0.0015411376953125,-0.0717620849609375,-1.000030517578125,-22.331802368164062,31.337799072265625,-232.876220703125,2023-10-26 02:30:05.2080,1698280205.207526,-0.008703900501132011,0.04297330603003502,-0.37740790843963623,-0.04035972198471427,0.060104355216026306,-1.0387725830078125,
0,2023-10-26 02:30:00.1410,00:13,60,0,2023-10-26 02:30:03.0500,1698280203.050108,0.006714628078043461,-0.008408664725720882,0.000898550555575639,-0.001434326171875,-0.0726470947265625,-1.0000152587890625,-22.358016967773438,31.520355224609375,-232.95118713378906,2023-10-26 02:30:05.2370,1698280205.237306,0.0716608464717865,0.28602415323257446,-0.4804410934448242,0.0668332683853805,0.2629089057445526,-0.9532622694969177,
0,2023-10-26 02:30:00.1410,00:13,60,0,2023-10-26 02:30:03.0670,1698280203.0667372,0.007228085305541754,-0.002222940558567643,-0.0013606089632958174,0.0006256103515625,-0.0725250244140625,-1.00457763671875,-22.3375244140625,31.510162353515625,-232.6762237548828,2023-10-26 02:30:05.2670,1698280205.267157,-0.10009932518005371,0.3121006488800049,-0.1731513887643814,0.04745460767298937,0.2831268012523651,-0.9825592041015625,
0,2023-10-26 02:30:00.1410,00:13,60,0,2023-10-26 02:30:03.0840,1698280203.0837169,0.011214571073651314,-0.005828860681504011,0.00010466222738614306,-0.0008392333984375,-0.0726470947265625,-1.0011138916015625,-22.174880981445312,31.502456665039062,-232.7247314453125,2023-10-26 02:30:05.2970,1698280205.296918,0.08707961440086365,0.305854469537735,-0.0868103876709938,0.06690956186503172,0.07348629832267761,-1.0342254638671875,
0,2023-10-26 02:30:00.1410,00:13,60,0,2023-10-26 02:30:03.1000,1698280203.100058,0.007370830979198217,-0.009521866217255592,-0.002447977662086487,-0.0003204345703125,-0.0718231201171875,-0.9988861083984375,-22.174880981445312,31.502456665039062,-232.7247314453125,2023-10-26 02:30:05.3270,1698280205.326766,-0.542807936668396,-0.00011331215500831604,-0.2474108785390854,0.012588268145918846,0.10745236277580261,-0.9622954726219177,
0,2023-10-26 02:30:00.1410,00:13,60,0,2023-10-26 02:30:03.1170,1698280203.116977,0.011480887420475483,-0.005438707303255796,0.0014136058744043112,-0.00018310546875,-0.072784423828125,-1.0023651123046875,-22.14837646484375,31.57647705078125,-232.7417755126953,2023-10-26 02:30:05.3560,1698280205.356489,-0.18873398005962372,0.062060579657554626,-0.23335294425487518,0.0712888315320015,0.2585754096508026,-0.989776611328125,
0,2023-10-26 02:30:00.1410,00:13,60,0,2023-10-26 02:30:03.1340,1698280203.1335201,0.005006209947168827,-0.005007275380194187,0.0034168355632573366,-0.0005035400390625,-0.07421875,-0.9995269775390625,-22.184707641601562,31.4288330078125,-232.31265258789062,2023-10-26 02:30:05.3870,1698280205.3865352,0.18729090690612793,0.05174202844500542,0.04552443325519562,0.08731056191027164,0.401763878762722,-0.9055633544921875,
0,2023-10-26 02:30:00.1410,00:13,60,0,2023-10-26 02:30:03.1500,1698280203.150336,0.006325273774564266,-0.00737349409610033,0.002816559048369527,-0.000701904296875,-0.0740966796875,-0.9979400634765625,-22.1878662109375,31.465087890625,-232.62747192382812,2023-10-26 02:30:05.4160,1698280205.416086,0.04477217420935631,0.025626739487051964,0.03398042917251587,-0.023651354014873505,0.3467254415154457,-0.9637298583984375,
0,2023-10-26 02:30:00.1410,00:13,60,0,2023-10-26 02:30:03.1670,1698280203.166836,0.007663512136787176,-0.00881905760616064,0.0032418658956885338,-0.0005340576171875,-0.07098388671875,-1.0040740966796875,-22.147430419921875,31.447891235351562,-232.910888671875,2023-10-26 02:30:05.4460,1698280205.445931,0.008960713632404804,0.005227923393249512,-0.010004817508161068,0.048232801258563995,0.13049312680959702,-1.0309600830078125,
0,2023-10-26 02:30:00.1410,00:13,60,0,2023-10-26 02:30:03.1830,1698280203.183394,0.010389789938926697,-0.0012181298807263374,0.0013028184184804559,-0.0005340576171875,-0.07098388671875,-1.0040740966796875,-22.147430419921875,31.447891235351562,-232.910888671875,2023-10-26 02:30:05.4760,1698280205.475678,-0.47291311621665955,-0.3849194347858429,-0.13681308925151825,0.066207654774189,0.11985775083303452,-1.00537109375,
0,2023-10-26 02:30:00.1410,00:13,60,0,2023-10-26 02:30:03.2000,1698280203.2001681,0.006737531162798405,-0.00458702864125371,-0.00024048343766480684,-0.0006561279296875,-0.0711212158203125,-1.0021209716796875,-22.30517578125,31.333786010742188,-232.38888549804688,2023-10-26 02:30:05.5060,1698280205.505544,-0.4951245188713074,0.0030007220339030027,-0.13112111389636993,-0.00405906792730093,0.13787837326526642,-1.0473021864891052,
0,2023-10-26 02:30:00.1410,00:13,60,0,2023-10-26 02:30:03.2170,1698280203.217005,0.007130613550543785,-0.008833971805870533,-0.0006599313346669078,-0.0010528564453125,-0.0715179443359375,-1.00018310546875,-22.210922241210938,31.249526977539062,-232.58518981933594,2023-10-26 02:30:05.5350,1698280205.535308,-0.3183520436286926,0.08945532143115997,-0.010012861341238022,-0.01113914605230093,0.16172786056995392,-0.9684600234031677,
0,2023-10-26 02:30:00.1410,00:13,60,0,2023-10-26 02:30:03.2330,1698280203.233418,0.007404120173305273,-0.007123156916350126,-0.00023382554354611784,9.1552734375e-05,-0.0722808837890625,-1.0035247802734375,-22.339248657226562,31.378204345703125,-232.83863830566406,2023-10-26 02:30:05.5660,1698280205.565929,-0.09382884949445724,0.07091911882162094,0.04177241027355194,0.023818740621209145,0.17025752365589142,-0.98577880859375,
0,2023-10-26 02:30:00.1410,00:13,60,0,2023-10-26 02:30:03.2500,1698280203.250266,0.008885636925697327,-0.005432582460343838,0.0010498181218281388,-0.0013427734375,-0.071685791015625,-0.999603271484375,-22.260757446289062,31.464813232421875,-232.50538635253906,2023-10-26 02:30:05.5950,1698280205.595104,0.009151196107268333,0.08495224267244339,0.03558940440416336,0.030425796285271645,0.1607360541820526,-0.9939117431640625,
0,2023-10-26 02:30:00.1410,00:13,60,0,2023-10-26 02:30:03.2670,1698280203.2667,0.008078699000179768,-0.005601692944765091,0.001431182725355029,-0.0005950927734375,-0.072174072265625,-1.000213623046875,-22.193527221679688,31.244979858398438,-232.58566284179688,2023-10-26 02:30:05.6250,1698280205.624809,-0.5360257625579834,-0.1719033122062683,-0.13935934007167816,0.074233777821064,0.15960688889026642,-1.01361083984375,
0,2023-10-26 02:30:00.1410,00:13,60,0,2023-10-26 02:30:03.2840,1698280203.283576,0.009118929505348206,-0.003881557146087289,0.0024027039762586355,-3.0517578125e-05,-0.071624755859375,-1.000091552734375,-22.209884643554688,31.337173461914062,-232.82574462890625,2023-10-26 02:30:05.6550,1698280205.654509,-0.7860733866691589,-0.1283917874097824,-0.16073234379291534,0.013747939839959145,0.17932124435901642,-0.997222900390625,
0,2023-10-26 02:30:00.1410,00:13,60,0,2023-10-26 02:30:03.3000,1698280203.300015,0.0073109096847474575,-0.007497597485780716,0.001549693406559527,0.000579833984375,-0.0717926025390625,-1.000457763671875,-22.209884643554688,31.337173461914062,-232.82574462890625,2023-10-26 02:30:05.6840,1698280205.684329,-0.30306974053382874,0.12614382803440094,-0.12946581840515137,0.00915504526346922,0.19857783615589142,-0.956756591796875,
0,2023-10-26 02:30:00.1410,00:13,60,0,2023-10-26 02:30:03.3170,1698280203.316875,0.0073109096847474575,-0.007497597485780716,0.001549693406559527,-0.0010833740234375,-0.0714111328125,-1.001007080078125,-22.265640258789062,31.256057739257812,-232.53187561035156,2023-10-26 02:30:05.7140,1698280205.714254,0.17695856094360352,0.3132799565792084,-0.3764645457267761,0.032317886129021645,0.16921992599964142,-0.9061279296875,
0,2023-10-26 02:30:00.1410,00:13,60,0,2023-10-26 02:30:03.3330,1698280203.333493,0.007454453967511654,-0.0076158419251441956,9.454221435589716e-05,-0.001495361328125,-0.07159423828125,-1.0003814697265625,-22.371017456054688,31.287689208984375,-232.8505859375,2023-10-26 02:30:05.7440,1698280205.743915,0.6272888779640198,0.08805496245622635,-1.0759024620056152,0.1821744590997696,0.15504448115825653,-0.9211578369140625,
0,2023-10-26 02:30:00.1410,00:13,60,0,2023-10-26 02:30:03.3500,1698280203.3501449,0.005911152344197035,-0.0010809770319610834,0.0022562299855053425,-0.00067138671875,-0.071746826171875,-1.001495361328125,-22.453582763671875,31.344512939453125,-232.8618927001953,2023-10-26 02:30:05.7740,1698280205.773694,1.1858670711517334,0.404484361410141,-2.1837158203125,-0.12669394817203283,0.27973930537700653,-1.0267486572265625,
0,2023-10-26 02:30:00.1410,00:13,60,0,2023-10-26 02:30:03.3670,1698280203.366683,0.010923221707344055,-0.007000385317951441,0.0022956449538469315,-0.0007476806640625,-0.071319580078125,-1.001373291015625,-22.541183471679688,31.27740478515625,-232.86756896972656,2023-10-26 02:30:05.8040,1698280205.803519,-0.2213648408651352,0.9531827569007874,-1.8425345420837402,-0.24569723941385746,0.29981987178325653,-1.144500732421875,
0,2023-10-26 02:30:00.1410,00:13,60,0,2023-10-26 02:30:03.3840,1698280203.383585,0.010923221707344055,-0.007000385317951441,0.0022956449538469315,4.57763671875e-05,-0.0731201171875,-0.999298095703125,-22.541183471679688,31.27740478515625,-232.86756896972656,2023-10-26 02:30:05.8330,1698280205.8332849,-1.0516512393951416,0.5994417071342468,-0.6278978586196899,-0.0988466665148735,0.32586662471294403,-1.079681396484375,
0,2023-10-26 02:30:00.1410,00:13,60,0,2023-10-26 02:30:03.4000,1698280203.399993,0.009947173297405243,-0.00541367381811142,0.0015140071045607328,-0.0002593994140625,-0.07098388671875,-1.0021820068359375,-22.437362670898438,30.976089477539062,-232.80218505859375,2023-10-26 02:30:05.8630,1698280205.863127,-0.03457697853446007,0.7874844074249268,-0.37268996238708496,0.059737931936979294,0.27067556977272034,-0.8570404052734375,
0,2023-10-26 02:30:00.1410,00:13,60,0,2023-10-26 02:30:03.4170,1698280203.4169102,0.0073599121533334255,-0.003079679561778903,0.0005957491230219603,-0.000152587890625,-0.072357177734375,-0.999114990234375,-22.428695678710938,30.9781494140625,-233.022216796875,2023-10-26 02:30:05.8930,1698280205.892879,1.2750154733657837,0.03235907852649689,-0.2717503011226654,0.2158048301935196,0.11781302094459534,-0.861663818359375,
0,2023-10-26 02:30:00.1410,00:13,60,0,2023-10-26 02:30:03.4320,1698280203.432008,0.00851492490619421,-0.004942294210195541,-0.0010761833982542157,0.0001983642578125,-0.073486328125,-1.0013580322265625,-22.398162841796875,30.92535400390625,-233.00588989257812,2023-10-26 02:30:05.9230,1698280205.922735,1.7074902057647705,-1.259537696838379,0.0928574874997139,0.06791664659976959,-0.09104927629232407,-0.9775390625,
0,2023-10-26 02:30:00.1410,00:13,60,0,2023-10-26 02:30:03.4500,1698280203.450424,0.011205250397324562,-0.004424575716257095,0.0020269318483769894,0.00018310546875,-0.072479248046875,-1.001739501953125,-22.212997436523438,30.659622192382812,-233.1667022705078,2023-10-26 02:30:05.9530,1698280205.952519,-0.16314932703971863,1.401404857635498,0.1269456297159195,-0.09867880493402481,0.14236442744731903,-1.0677490234375,
0,2023-10-26 02:30:00.1410,00:13,60,0,2023-10-26 02:30:03.4670,1698280203.4667602,0.005789179354906082,-0.004462126176804304,0.0018753979820758104,-0.0003204345703125,-0.0727081298828125,-1.0009918212890625,-22.226425170898438,30.936798095703125,-233.34317016601562,2023-10-26 02:30:05.9820,1698280205.982261,0.053832583129405975,-0.20828942954540253,0.25633567571640015,0.2077024094760418,0.12019339948892593,-0.964111328125,
0,2023-10-26 02:30:00.1410,00:13,60,0,2023-10-26 02:30:03.4840,1698280203.483591,0.009327455423772335,-0.008521050214767456,0.0026431872975081205,-0.0009918212890625,-0.071502685546875,-0.999786376953125,-22.226425170898438,30.936798095703125,-233.34317016601562,2023-10-26 02:30:06.0120,1698280206.012074,0.04087962955236435,-0.24115881323814392,0.12870965898036957,0.016128316521644592,0.05516044795513153,-0.9872894287109375,
0,2023-10-26 02:30:00.1410,00:13,60,0,2023-10-26 02:30:03.5000,1698280203.4999518,0.009813481941819191,-0.0016873788554221392,0.0037766287568956614,-0.0013885498046875,-0.0701141357421875,-1.00244140625,-21.968490600585938,30.536453247070312,-233.3995361328125,2023-10-26 02:30:06.0420,1698280206.042079,-0.03793022781610489,-0.18517303466796875,0.30043065547943115,0.054168473929166794,0.10327140986919403,-1.0137939453125,
0,2023-10-26 02:30:00.1410,00:13,60,0,2023-10-26 02:30:03.5170,1698280203.5167189,0.009581521153450012,-0.004888232331722975,-0.0016783240716904402,0.000396728515625,-0.07452392578125,-1.002288818359375,-21.886245727539062,30.6790771484375,-233.753173828125,2023-10-26 02:30:06.0720,1698280206.071779,-0.125088170170784,-0.024993896484375,0.11584088206291199,0.0883481614291668,0.16738884150981903,-0.9806976914405823,
0,2023-10-26 02:30:00.1410,00:13,60,0,2023-10-26 02:30:03.5340,1698280203.533562,0.005637113004922867,-0.00806298665702343,-0.000595216522924602,-0.0007171630859375,-0.074371337890625,-1.001129150390625,-21.709808349609375,30.685455322265625,-233.7778778076172,2023-10-26 02:30:06.1020,1698280206.10176,-0.03215023875236511,-0.06000833958387375,0.10746913403272629,0.037124406546354294,0.13888542354106903,-0.9928131103515625,
0,2023-10-26 02:30:00.1410,00:13,60,0,2023-10-26 02:30:03.5500,1698280203.55041,0.0041244374588131905,-0.01215999387204647,-0.002630936913192272,-0.000732421875,-0.0733184814453125,-0.9985504150390625,-21.67510986328125,30.692779541015625,-233.19662475585938,2023-10-26 02:30:06.1310,1698280206.1312609,0.043058428913354874,-0.07019352912902832,0.0966789647936821,0.028411637991666794,0.11462394893169403,-0.9878997802734375,
0,2023-10-26 02:30:00.1410,00:13,60,0,2023-10-26 02:30:03.5670,1698280203.566828,0.005019259639084339,-0.0033848776947706938,0.003745736088603735,-0.0018157958984375,-0.0697784423828125,-1.00054931640625,-21.435684204101562,30.61492919921875,-233.2790069580078,2023-10-26 02:30:06.1610,1698280206.161066,0.01183499675244093,0.00021565472707152367,0.04926670715212822,0.026366963982582092,0.12129204720258713,-0.9593353271484375,
0,2023-10-26 02:30:00.1410,00:13,60,0,2023-10-26 02:30:03.5840,1698280203.583599,0.009214270859956741,-0.002409894485026598,0.0017259946325793862,-0.0014190673828125,-0.0708465576171875,-1.0055389404296875,-21.435684204101562,30.61492919921875,-233.2790069580078,2023-10-26 02:30:06.1910,1698280206.190865,0.03861720860004425,0.17373910546302795,-0.02279326319694519,0.0977933518588543,0.12458793073892593,-1.0318450331687927,
0,2023-10-26 02:30:00.1410,00:13,60,0,2023-10-26 02:30:03.6000,1698280203.600086,0.004047205671668053,-0.004876514431089163,0.0014306501252576709,-0.0008392333984375,-0.073455810546875,-0.99822998046875,-21.260406494140625,30.761138916015625,-233.70545959472656,2023-10-26 02:30:06.2210,1698280206.2207,0.031057491898536682,-0.021363208070397377,0.036624252796173096,0.10848976671695709,0.11691276729106903,-0.944061279296875,
0,2023-10-26 02:30:00.1410,00:13,60,0,2023-10-26 02:30:03.6160,1698280203.615917,0.010354103520512581,-0.01254987996071577,0.0011622034944593906,-0.0018768310546875,-0.0698394775390625,-0.999267578125,-21.180908203125,30.69732666015625,-233.42713928222656,2023-10-26 02:30:06.2500,1698280206.250454,0.49324437975883484,-0.5614853501319885,-0.046236857771873474,0.0804135911166668,0.14273064583539963,-0.94775390625,
0,2023-10-26 02:30:00.1410,00:13,60,0,2023-10-26 02:30:03.6340,1698280203.633508,0.010120544582605362,-0.003093261504545808,0.00047697214176878333,-0.0005035400390625,-0.072357177734375,-1.0012664794921875,-21.129745483398438,30.554275512695312,-233.76548767089844,2023-10-26 02:30:06.2800,1698280206.280379,0.004743664059787989,-0.7278498411178589,-0.04201254993677139,0.014663472771644592,0.10568231344223022,-0.9344940185546875,
0,2023-10-26 02:30:00.1410,00:13,60,0,2023-10-26 02:30:03.6500,1698280203.650281,0.010172209702432156,-0.0035385421942919493,0.0014916365034878254,-7.62939453125e-05,-0.072113037109375,-1.0028839111328125,-21.036453247070312,30.660614013671875,-233.69845581054688,2023-10-26 02:30:06.3100,1698280206.310046,-0.04273117333650589,0.31298938393592834,0.008530037477612495,-0.051620710641145706,0.11032097041606903,-1.0218505859375,
0,2023-10-26 02:30:00.1410,00:13,60,0,2023-10-26 02:30:03.6670,1698280203.666825,0.009866212494671345,-0.007498662453144789,-0.0014570154016837478,-0.00140380859375,-0.0700836181640625,-0.9978179931640625,-20.774688720703125,30.568511962890625,-233.5097198486328,2023-10-26 02:30:06.3400,1698280206.339913,-0.004841518588364124,0.20400214195251465,-0.004569146316498518,0.04267860762774944,0.11460869014263153,-1.0019226670265198,
0,2023-10-26 02:30:00.1410,00:13,60,0,2023-10-26 02:30:03.6840,1698280203.683646,0.009277387522161007,-0.004505802411586046,-0.0015108112711459398,-0.000732421875,-0.0734710693359375,-1.000152587890625,-20.774688720703125,30.568511962890625,-233.5097198486328,2023-10-26 02:30:06.3700,1698280206.369638,0.011837126687169075,-0.26655158400535583,-0.0149858882650733,0.04504371993243694,0.11480706185102463,-0.99273681640625,
0,2023-10-26 02:30:00.1410,00:13,60,0,2023-10-26 02:30:03.7000,1698280203.700057,0.0046906257048249245,-0.003323092358186841,-0.0015033544041216373,-0.000732421875,-0.0734710693359375,-1.000152587890625,-20.855377197265625,30.615509033203125,-233.5362548828125,2023-10-26 02:30:06.3990,1698280206.399426,0.008754251524806023,0.07267733663320541,-0.00012747314758598804,0.004836812615394592,0.11439506709575653,-0.998199462890625,
0,2023-10-26 02:30:00.1410,00:13,60,0,2023-10-26 02:30:03.7170,1698280203.716864,0.010221478529274464,-0.006842725910246372,0.0026221484877169132,-0.00079345703125,-0.0721435546875,-0.998138427734375,-20.7608642578125,30.76226806640625,-233.7312469482422,2023-10-26 02:30:06.4290,1698280206.429456,0.007847911678254604,0.12132803350687027,0.0017160199349746108,0.032012712210416794,0.11213676631450653,-0.9939117431640625,
0,2023-10-26 02:30:00.1410,00:13,60,0,2023-10-26 02:30:03.7330,1698280203.7334762,0.010423346422612667,-0.0059692091308534145,0.0008048072922974825,0.00091552734375,-0.072296142578125,-1.0016632080078125,-20.67266845703125,30.8321533203125,-233.58102416992188,2023-10-26 02:30:06.4590,1698280206.459077,0.013704735785722733,-0.08419770002365112,-0.002747597638517618,0.04185463488101959,0.11067192256450653,-0.9911041259765625,
0,2023-10-26 02:30:00.1410,00:13,60,0,2023-10-26 02:30:03.7500,1698280203.750187,0.007426491007208824,-0.0010378338629379869,0.0006167881074361503,0.0009307861328125,-0.07281494140625,-1.0025634765625,-20.560043334960938,30.739334106445312,-233.86192321777344,2023-10-26 02:30:06.4890,1698280206.488827,0.008285202085971832,-0.0042828903533518314,-0.0032456086482852697,0.023956075310707092,0.10751336067914963,-0.9972686767578125,
0,2023-10-26 02:30:00.1410,00:13,60,0,2023-10-26 02:30:03.7670,1698280203.766845,0.0064387246966362,-0.004567321389913559,0.0009480853332206607,-0.0009918212890625,-0.0727081298828125,-1.00048828125,-20.560043334960938,30.739334106445312,-233.86192321777344,2023-10-26 02:30:06.5190,1698280206.518657,-0.00030462388531304896,0.05354825034737587,-0.0005572540685534477,0.027923360466957092,0.10923759639263153,-0.996063232421875,
0,2023-10-26 02:30:00.1410,00:13,60,0,2023-10-26 02:30:03.7840,1698280203.783637,0.007795604877173901,-0.007541273254901171,0.0009038768475875258,-0.0004425048828125,-0.071380615234375,-1.000335693359375,-20.575881958007812,30.646484375,-233.6827392578125,2023-10-26 02:30:06.5490,1698280206.548619,-0.00758404191583395,-0.04308434948325157,-0.004144532606005669,0.03517128340899944,0.10871879756450653,-0.9903411269187927,
0,2023-10-26 02:30:00.1410,00:13,60,0,2023-10-26 02:30:03.8000,1698280203.800045,0.007023288402706385,-0.0028535770252346992,-0.0005691175465472043,-0.000946044921875,-0.072601318359375,-1.00384521484375,-20.542404174804688,30.643310546875,-233.12754821777344,2023-10-26 02:30:06.5780,1698280206.578232,-0.0005363854579627514,-0.022690793499350548,0.0007667096797376871,0.023422015830874443,0.11337273567914963,-1.002105712890625,
0,2023-10-26 02:30:00.1410,00:13,60,0,2023-10-26 02:30:03.8170,1698280203.8168511,0.005988650489598513,-0.006252835970371962,0.001241033081896603,0.000152587890625,-0.0716094970703125,-0.999114990234375,-20.535430908203125,30.616134643554688,-233.5167694091797,2023-10-26 02:30:06.6080,1698280206.608029,0.0008875401108525693,0.056077055633068085,0.0011217091232538223,0.024780048057436943,0.11233513802289963,-0.9984893798828125,
0,2023-10-26 02:30:00.1410,00:13,60,0,2023-10-26 02:30:03.8330,1698280203.833229,0.005988650489598513,-0.006252835970371962,0.001241033081896603,-0.0010833740234375,-0.07086181640625,-1.00177001953125,-20.634017944335938,30.71612548828125,-233.25892639160156,2023-10-26 02:30:06.6380,1698280206.6378179,0.007217074744403362,-0.009558679535984993,-0.0007144871633499861,0.03413368761539459,0.11183159798383713,-0.993988037109375,
0,2023-10-26 02:30:00.1410,00:13,60,0,2023-10-26 02:30:03.8490,1698280203.849451,0.007837682962417603,-0.0020865867845714092,0.0018812569323927164,-0.0009613037109375,-0.070892333984375,-0.9998016357421875,-20.556503295898438,30.548248291015625,-233.19549560546875,2023-10-26 02:30:06.6680,1698280206.667642,0.006487302482128143,-0.02639378421008587,-0.0005280659534037113,0.027923360466957092,0.11044304817914963,-0.99346923828125,
0,2023-10-26 02:30:00.1410,00:13,60,0,2023-10-26 02:30:03.8660,1698280203.86628,0.005809952039271593,-0.0054845139384269714,-0.0024716798216104507,-0.0009918212890625,-0.0696868896484375,-1.0018768310546875,-20.556503295898438,30.548248291015625,-233.19549560546875,2023-10-26 02:30:06.6970,1698280206.697472,0.00032854266464710236,0.025698645040392876,0.0017512270715087652,0.023757711052894592,0.11422722786664963,-0.9967193603515625,
0,2023-10-26 02:30:00.1410,00:13,60,0,2023-10-26 02:30:03.8830,1698280203.883472,0.011012171395123005,-0.00686003640294075,0.0003355582884978503,-0.001556396484375,-0.071258544921875,-0.999969482421875,-20.578842163085938,30.409500122070312,-233.38525390625,2023-10-26 02:30:06.7270,1698280206.727223,0.004758710972964764,0.005398432724177837,-0.001397428335621953,0.028228534385561943,0.11259452998638153,-0.994415283203125,
0,2023-10-26 02:30:00.1410,00:13,60,0,2023-10-26 02:30:03.9000,1698280203.9001122,0.011012171395123005,-0.00686003640294075,0.0003355582884978503,-0.000640869140625,-0.0717620849609375,-1.001678466796875,-20.623794555664062,30.3328857421875,-233.5075225830078,2023-10-26 02:30:06.7570,1698280206.757026,0.005796877667307854,-0.006842054892331362,0.0015229941345751286,0.027679219841957092,0.11289971321821213,-0.9970550537109375,
0,2023-10-26 02:30:00.1410,00:13,60,0,2023-10-26 02:30:03.9170,1698280203.916919,0.010983143001794815,-0.007614510133862495,0.0025798040442168713,-0.00189208984375,-0.071441650390625,-1.0008697509765625,-20.797164916992188,30.395538330078125,-233.8455810546875,2023-10-26 02:30:06.7870,1698280206.786837,0.00696573918685317,0.012470390647649765,-0.000969564775004983,0.029632342979311943,0.11174004524946213,-0.9958953857421875,
0,2023-10-26 02:30:00.1410,00:13,60,0,2023-10-26 02:30:03.9330,1698280203.933393,0.008753277361392975,-0.0031281490810215473,0.000639691308606416,-0.000213623046875,-0.0719451904296875,-1.0004119873046875,-20.795425415039062,30.05755615234375,-233.70333862304688,2023-10-26 02:30:06.8170,1698280206.816675,-0.0008510379702784121,-0.017892176285386086,0.0024923314340412617,0.030929338186979294,0.11032097041606903,-0.9916839003562927,
0,2023-10-26 02:30:00.1410,00:13,60,0,2023-10-26 02:30:03.9500,1698280203.9503598,0.009815879166126251,-0.007819040678441525,0.002766757970675826,0.00091552734375,-0.0726165771484375,-1.0014801025390625,-21.056381225585938,30.36077880859375,-233.5039825439453,2023-10-26 02:30:06.8460,1698280206.846489,0.0018641878850758076,-0.014434993267059326,0.000851877499371767,0.028396381065249443,0.11187737435102463,-0.999237060546875,
0,2023-10-26 02:30:00.1410,00:13,60,0,2023-10-26 02:30:03.9670,1698280203.9668221,0.010435597039759159,-0.00461552431806922,0.0015390408225357533,0.0007781982421875,-0.0719757080078125,-1.00103759765625,-21.056381225585938,30.36077880859375,-233.5039825439453,2023-10-26 02:30:06.8760,1698280206.876225,-0.002719445154070854,0.008778249844908714,-0.0009388320613652468,0.026366960257291794,0.11137382686138153,-0.994476318359375,
0,2023-10-26 02:30:00.1410,00:13,60,0,2023-10-26 02:30:03.9830,1698280203.9834309,0.011973838321864605,-0.007349525578320026,0.002245843643322587,0.0003814697265625,-0.073486328125,-1.0022430419921875,-21.178756713867188,30.458389282226562,-233.9004669189453,2023-10-26 02:30:06.9060,1698280206.906005,-0.0014615010004490614,0.00252581387758255,0.0020822046790271997,0.029067769646644592,0.11218254268169403,-0.9924010634422302,
0,2023-10-26 02:30:00.1410,00:13,60,0,2023-10-26 02:30:04.0000,1698280204.000115,0.007081877905875444,-0.006076534744352102,0.00033449303009547293,0.0007171630859375,-0.0723114013671875,-0.9992523193359375,-21.179840087890625,30.121978759765625,-234.0468292236328,2023-10-26 02:30:06.9360,1698280206.9358191,-5.2622279326897115e-05,-0.0021105497144162655,-0.0006197320763021708,0.028152240440249443,0.11178582161664963,-1.0011138916015625,
0,2023-10-26 02:30:00.1410,00:13,60,0,2023-10-26 02:30:04.0170,1698280204.016738,0.004536162130534649,-0.0018615495646372437,-0.0002564624010119587,-0.000885009765625,-0.072235107421875,-1.0034637451171875,-21.277908325195312,30.12725830078125,-233.85806274414062,2023-10-26 02:30:06.9660,1698280206.965609,0.0045595066621899605,0.008038956671953201,0.000936086755245924,0.027251970022916794,0.11192314326763153,-0.9968414306640625,
0,2023-10-26 02:30:00.1410,00:13,60,0,2023-10-26 02:30:04.0330,1698280204.033492,0.011829495429992676,-0.004904743749648333,0.001100950757972896,-0.0008087158203125,-0.071685791015625,-0.9996337890625,-21.262466430664062,30.074676513671875,-233.68807983398438,2023-10-26 02:30:06.9950,1698280206.995411,0.0012113138800486922,-0.005555348936468363,-0.0004758676514029503,0.029495015740394592,0.11204522103071213,-0.9907989501953125,
0,2023-10-26 02:30:00.1410,00:13,60,0,2023-10-26 02:30:04.0500,1698280204.050252,0.004819256253540516,-0.003802727675065398,0.0019299928098917007,-0.00152587890625,-0.0724945068359375,-1.0007171630859375,-21.262466430664062,30.074676513671875,-233.68807983398438,2023-10-26 02:30:07.0250,1698280207.0252109,-0.002635688753798604,-0.010098635219037533,-0.0018797270022332668,0.026580587029457092,0.10803215950727463,-0.9952392578125,
0,2023-10-26 02:30:00.1410,00:13,60,0,2023-10-26 02:30:04.0670,1698280204.066827,0.011236143298447132,-0.0054850466549396515,0.0016429040115326643,-0.000274658203125,-0.0726776123046875,-1.000946044921875,-21.459869384765625,30.052597045898438,-233.36502075195312,2023-10-26 02:30:07.0550,1698280207.055068,0.0012896775733679533,0.01837894693017006,0.0005840167868882418,0.028686299920082092,0.11074822396039963,-0.995452880859375,
0,2023-10-26 02:30:00.1410,00:13,60,0,2023-10-26 02:30:04.0830,1698280204.083405,0.002261556452140212,-0.011831625364720821,-0.0003920173039659858,-0.0017242431640625,-0.0714569091796875,-0.9949951171875,-21.698394775390625,29.94677734375,-233.49232482910156,2023-10-26 02:30:07.0850,1698280207.084928,0.0005808105925098062,-0.015586545690894127,-0.0007674000225961208,0.030792009085416794,0.10940544307231903,-0.9971465468406677,
0,2023-10-26 02:30:00.1410,00:13,60,0,2023-10-26 02:30:04.1000,1698280204.1001182,0.010705641470849514,-0.006922088097780943,-0.0026581010315567255,-0.000244140625,-0.0703277587890625,-1.0046539306640625,-21.753280639648438,29.966964721679688,-233.59475708007812,2023-10-26 02:30:07.1150,1698280207.1147032,-0.0010549694998189807,0.007410184480249882,-0.000696949427947402,0.026183858513832092,0.11070244759321213,-0.996307373046875,
0,2023-10-26 02:30:00.1410,00:13,60,0,2023-10-26 02:30:04.1170,1698280204.1168962,0.00977539923042059,-0.0038743666373193264,-7.723167072981596e-05,0.0003662109375,-0.071441650390625,-1.0031890869140625,-21.629318237304688,29.9468994140625,-233.28060913085938,2023-10-26 02:30:07.1440,1698280207.144386,-0.0034307087771594524,0.005666546057909727,0.0017205022741109133,0.029067769646644592,0.11175530403852463,-0.9962158203125,
0,2023-10-26 02:30:00.1410,00:13,60,0,2023-10-26 02:30:04.1330,1698280204.133309,0.005024585872888565,-0.008868326433002949,-0.00032730249222368,-0.001708984375,-0.0712738037109375,-0.9996795654296875,-21.729843139648438,29.846298217773438,-233.11024475097656,2023-10-26 02:30:07.1740,1698280207.174236,0.000996796297840774,-0.002757564652711153,-0.00018774229101836681,0.028442159295082092,0.10910028219223022,-0.995086669921875,
0,2023-10-26 02:30:00.1410,00:13,60,0,2023-10-26 02:30:04.1500,1698280204.150072,0.011320831254124641,-0.010575679130852222,0.0012381036067381501,0.0003814697265625,-0.0734100341796875,-1.0013580322265625,-21.729843139648438,29.846298217773438,-233.11024475097656,2023-10-26 02:30:07.2040,1698280207.203981,0.0035542964469641447,-0.0028873272240161896,0.0006006027106195688,0.028152240440249443,0.11599723249673843,-0.995147705078125,
0,2023-10-26 02:30:00.1410,00:13,60,0,2023-10-26 02:30:04.1670,1698280204.166692,0.005148422904312611,-0.005057609174400568,-0.0005744438385590911,-0.00042724609375,-0.071929931640625,-0.9982147216796875,-21.557815551757812,29.933059692382812,-232.8942108154297,2023-10-26 02:30:07.2340,1698280207.233751,0.0017483404371887445,0.0026925941929221153,-0.0015606074593961239,0.028335345908999443,0.10984795540571213,-0.9969329833984375,
0,2023-10-26 02:30:00.1410,00:13,60,0,2023-10-26 02:30:04.1840,1698280204.183531,0.012917929328978062,-0.006302370689809322,0.00044528054422698915,-0.000518798828125,-0.0710296630859375,-1.00457763671875,-21.819168090820312,29.955551147460938,-232.64581298828125,2023-10-26 02:30:07.2640,1698280207.263558,0.002897627418860793,0.004201408475637436,-0.0032569519244134426,0.029021993279457092,0.11041252315044403,-0.99298095703125,
0,2023-10-26 02:30:00.1410,00:13,60,0,2023-10-26 02:30:04.2000,1698280204.199967,0.00589490681886673,-0.0073537868447601795,0.001662877737544477,-0.0016632080078125,-0.0708160400390625,-1.0017242431640625,-21.79345703125,30.16583251953125,-232.6907501220703,2023-10-26 02:30:07.2930,1698280207.293427,0.003195235738530755,-0.024486562237143517,-0.002807551296427846,0.028945697471499443,0.11128228157758713,-0.99603271484375,
0,2023-10-26 02:30:00.1410,00:13,60,0,2023-10-26 02:30:04.2170,1698280204.216893,0.007929296232759953,-0.007548197638243437,-0.0013470269041135907,-0.0016632080078125,-0.0708160400390625,-1.0017242431640625,-21.651702880859375,30.031784057617188,-232.64344787597656,2023-10-26 02:30:07.3230,1698280207.323148,0.00041130039608106017,0.02222275361418724,-0.0022953245788812637,0.024657975882291794,0.10885612666606903,-0.997955322265625,
0,2023-10-26 02:30:00.1410,00:13,60,0,2023-10-26 02:30:04.2330,1698280204.233434,0.007445133291184902,-0.0035358788445591927,-0.0012412993237376213,-0.0003509521484375,-0.0709228515625,-1.00299072265625,-21.632492065429688,29.941513061523438,-232.15707397460938,2023-10-26 02:30:07.3530,1698280207.353008,0.0006435946561396122,0.0014417739585042,-0.002239059656858444,0.029220357537269592,0.10972588509321213,-0.99658203125,
0,2023-10-26 02:30:00.1410,00:13,60,0,2023-10-26 02:30:04.2500,1698280204.2504249,0.008174306713044643,-0.007613977417349815,-0.0009113337146118283,0.001739501953125,-0.0724029541015625,-0.9961700439453125,-21.632492065429688,29.941513061523438,-232.15707397460938,2023-10-26 02:30:07.3830,1698280207.382782,0.0038940494414418936,-0.009993374347686768,-0.0005826263222843409,0.026672136038541794,0.11329643428325653,-0.997894287109375,
0,2023-10-26 02:30:00.1410,00:13,60,0,2023-10-26 02:30:04.2670,1698280204.266502,0.003329750383272767,-0.018878616392612457,0.0005310343112796545,-0.0023956298828125,-0.055389404296875,-1.0020294189453125,-21.680709838867188,30.229721069335938,-232.3809051513672,2023-10-26 02:30:07.4130,1698280207.412695,0.0061143930070102215,0.020269125699996948,0.00010505481623113155,0.029388202354311943,0.11265557259321213,-0.9972991943359375,
0,2023-10-26 02:30:00.1410,00:13,60,0,2023-10-26 02:30:04.2840,1698280204.2835422,0.008792426437139511,-0.0051718587055802345,0.0018687400734052062,-0.0001983642578125,-0.0622711181640625,-1.0094451904296875,-21.682205200195312,30.308151245117188,-232.23580932617188,2023-10-26 02:30:07.4420,1698280207.442358,-0.0008102916181087494,-0.02621828392148018,0.0030134390108287334,0.03428627364337444,0.10826104134321213,-0.99114990234375,
0,2023-10-26 02:30:00.1410,00:13,60,0,2023-10-26 02:30:04.3000,1698280204.2999048,0.007919441908597946,0.007414506748318672,-0.0062544336542487144,0.007171630859375,-0.100799560546875,-0.9939117431640625,-21.34979248046875,30.296356201171875,-232.10916137695312,2023-10-26 02:30:07.4720,1698280207.4722471,-0.0018568473169580102,-0.014077531173825264,0.00016843504272401333,0.027648700401186943,0.10995475202798843,-0.9950408935546875,
0,2023-10-26 02:30:00.1410,00:13,60,0,2023-10-26 02:30:04.3170,1698280204.316786,-0.007112238090485334,-0.017007745802402496,0.004600344225764275,0.00048828125,-0.070892333984375,-0.9795074462890625,-21.218704223632812,30.578582763671875,-232.0233917236328,2023-10-26 02:30:07.5020,1698280207.501958,-0.0035806449595838785,0.015120502561330795,-0.0015630419366061687,0.026687394827604294,0.11245720088481903,-0.9952850341796875,
0,2023-10-26 02:30:00.1410,00:13,60,0,2023-10-26 02:30:04.3330,1698280204.333397,0.015670571476221085,0.02881992980837822,0.0033926009200513363,-0.00433349609375,-0.0477294921875,-1.0119171142578125,-21.113693237304688,30.61248779296875,-231.6389617919922,2023-10-26 02:30:07.5320,1698280207.5316281,0.001115506747737527,-0.005407609976828098,-0.0006909454241394997,0.029250875115394592,0.11148064583539963,-0.9964141845703125,
0,2023-10-26 02:30:00.1410,00:13,60,0,2023-10-26 02:30:04.3500,1698280204.350097,0.015670571476221085,0.02881992980837822,0.0033926009200513363,0.0027313232421875,-0.0916748046875,-1.01824951171875,-21.113693237304688,30.61248779296875,-231.6389617919922,2023-10-26 02:30:07.5610,1698280207.56142,0.0006835419917479157,-0.004924512468278408,-0.002781527116894722,0.027221454307436943,0.11100762337446213,-0.99365234375,
0,2023-10-26 02:30:00.1410,00:13,60,0,2023-10-26 02:30:04.3670,1698280204.366502,0.01122389268130064,0.00643686018884182,-0.002629871480166912,-0.004730224609375,-0.07684326171875,-0.982086181640625,-20.9354248046875,30.48553466796875,-231.87144470214844,2023-10-26 02:30:07.5910,1698280207.591299,-0.0019374078838154674,0.004517858382314444,-0.00042784493416547775,0.028579486533999443,0.11039727181196213,-0.9936065673828125,
0,2023-10-26 02:30:00.1410,00:13,60,0,2023-10-26 02:30:04.3840,1698280204.383522,0.009250489994883537,-0.012133361771702766,3.99474156438373e-05,-0.0030059814453125,-0.067535400390625,-0.9997406005859375,-20.990142822265625,30.52374267578125,-232.2186279296875,2023-10-26 02:30:07.6210,1698280207.621206,-0.0047311303205788136,-0.021297160536050797,-0.0001630715560168028,0.027786029502749443,0.10984795540571213,-0.9949341416358948,
0,2023-10-26 02:30:00.1410,00:13,60,0,2023-10-26 02:30:04.4000,1698280204.3998451,0.006059490609914064,0.017182182520627975,0.003519101068377495,0.0026702880859375,-0.07318115234375,-1.0086822509765625,-20.927947998046875,30.765426635742188,-231.8407440185547,2023-10-26 02:30:07.6510,1698280207.650945,-0.0010194163769483566,0.01161118783056736,-0.0023350981064140797,0.02529885061085224,0.11166374385356903,-0.9968109130859375,
0,2023-10-26 02:30:00.1410,00:13,60,0,2023-10-26 02:30:04.4170,1698280204.4169822,0.006059490609914064,0.017182182520627975,0.003519101068377495,-0.0003814697265625,-0.06951904296875,-1.004180908203125,-20.924850463867188,30.752655029296875,-231.8779754638672,2023-10-26 02:30:07.6810,1698280207.680725,-0.008044835180044174,0.027401868253946304,0.0011752366553992033,0.029266132041811943,0.10542289167642593,-0.9940643310546875,
0,2023-10-26 02:30:00.1410,00:13,60,0,2023-10-26 02:30:04.4330,1698280204.433497,-0.005906891077756882,-0.030246585607528687,0.0024578312877565622,0.003021240234375,-0.0890655517578125,-0.9829864501953125,-20.924850463867188,30.752655029296875,-231.8779754638672,2023-10-26 02:30:07.7110,1698280207.71064,0.0013338859425857663,-0.03463766723871231,-0.0013266033492982388,0.03169228136539459,0.11053460091352463,-1.001007080078125,
0,2023-10-26 02:30:00.1410,00:13,60,0,2023-10-26 02:30:04.4500,1698280204.450088,0.009375925175845623,0.0039145806804299355,0.004804342519491911,-0.000946044921875,-0.0552520751953125,-1.00030517578125,-20.75177001953125,30.590240478515625,-231.59559631347656,2023-10-26 02:30:07.7400,1698280207.740305,0.013684295117855072,-0.00653226301074028,0.00010311463847756386,0.026000749319791794,0.10884086787700653,-0.9992523193359375,
0,2023-10-26 02:30:00.1410,00:13,60,0,2023-10-26 02:30:04.4640,1698280204.464493,0.006858971435576677,0.01261193212121725,-0.004060788080096245,-0.00152587890625,-0.0625762939453125,-1.0145721435546875,-20.6239013671875,30.526397705078125,-231.36630249023438,2023-10-26 02:30:07.7700,1698280207.770158,0.008951857686042786,0.018009832128882408,0.004464629106223583,0.024307025596499443,0.11445610970258713,-0.9962158203125,
0,2023-10-26 02:30:00.1410,00:13,60,0,2023-10-26 02:30:04.4840,1698280204.483502,0.004881041590124369,-0.011875834316015244,-0.00030839405371807516,-0.0009307861328125,-0.0710906982421875,-0.9976654052734375,-20.786331176757812,30.774932861328125,-231.76095581054688,2023-10-26 02:30:07.8000,1698280207.799921,0.004718497395515442,0.0069161681458354,0.003302408615127206,0.029113544151186943,0.10836784541606903,-0.9936217665672302,
0,2023-10-26 02:30:00.1410,00:13,60,0,2023-10-26 02:30:04.5000,1698280204.499758,0.010877680964767933,-0.015055648051202297,0.00019094864546786994,-0.002471923828125,-0.06890869140625,-0.9915618896484375,-20.870773315429688,30.861358642578125,-231.78790283203125,2023-10-26 02:30:07.8300,1698280207.8297582,-0.0010214803041890264,0.012500617653131485,0.002792626153677702,0.031707536429166794,0.11119072884321213,-0.9956817626953125,
0,2023-10-26 02:30:00.1410,00:13,60,0,2023-10-26 02:30:04.5170,1698280204.516862,0.004397944081574678,0.007078682072460651,0.001187237212434411,0.00079345703125,-0.0706329345703125,-1.0102691650390625,-20.638015747070312,30.589096069335938,-231.9022674560547,2023-10-26 02:30:07.8600,1698280207.859504,-0.010374368168413639,-0.015210239216685295,0.00013367296196520329,0.033111345022916794,0.10700980573892593,-0.989593505859375,
0,2023-10-26 02:30:00.1410,00:13,60,0,2023-10-26 02:30:04.5330,1698280204.5333982,0.011684885248541832,0.007527158595621586,-1.0120012120751198e-05,-0.001007080078125,-0.07159423828125,-1.0005035400390625,-20.638015747070312,30.589096069335938,-231.9022674560547,2023-10-26 02:30:07.8890,1698280207.889348,-0.01502025406807661,-0.02841445989906788,-0.0013400670140981674,0.029052507132291794,0.11003106087446213,-0.9881439208984375,
0,2023-10-26 02:30:00.1410,00:13,60,0,2023-10-26 02:30:04.5500,1698280204.549914,0.012270514853298664,-0.00941933412104845,0.0017028251895681024,-0.0029754638671875,-0.067626953125,-0.9915008544921875,-20.52801513671875,30.827072143554688,-231.88223266601562,2023-10-26 02:30:07.9190,1698280207.919129,-0.020364418625831604,-0.009973132982850075,0.001012782333418727,0.023666156455874443,0.10852043330669403,-1.0042572021484375,
0,2023-10-26 02:30:00.1410,00:13,60,0,2023-10-26 02:30:04.5670,1698280204.5666718,0.0034163030795753,-0.01920006051659584,-0.0003787015157286078,0.0032958984375,-0.0813446044921875,-1.00958251953125,-20.355331420898438,30.57501220703125,-231.41610717773438,2023-10-26 02:30:07.9490,1698280207.948948,-0.00021474222012329847,0.00935802049934864,-0.0032165837474167347,0.023940816521644592,0.11927788704633713,-1.0003509521484375,
0,2023-10-26 02:30:00.1410,00:13,60,0,2023-10-26 02:30:04.5830,1698280204.5834532,0.012328305281698704,0.004553472623229027,-0.0021728731226176023,-0.003631591796875,-0.057891845703125,-0.9915313720703125,-20.309036254882812,30.813369750976562,-231.75241088867188,2023-10-26 02:30:07.9790,1698280207.978698,0.006781781557947397,0.012706279754638672,0.0013954783789813519,0.029067769646644592,0.11857598274946213,-1.001495361328125,
0,2023-10-26 02:30:00.1410,00:13,60,0,2023-10-26 02:30:04.6000,1698280204.6002479,0.009850766509771347,-0.0013821806060150266,0.00020346550445538014,0.0014801025390625,-0.0725250244140625,-1.014251708984375,-20.413848876953125,30.464004516601562,-231.84158325195312,2023-10-26 02:30:08.0080,1698280208.008463,0.00911078229546547,-0.010801242664456367,0.00021356763318181038,0.02641274221241474,0.11062615364789963,-0.9952545166015625,
0,2023-10-26 02:30:00.1410,00:13,60,0,2023-10-26 02:30:04.6170,1698280204.61666,0.005630987696349621,-0.01133947353810072,-0.0014301175251603127,3.0517578125e-05,-0.07666015625,-0.9886627197265625,-20.519577026367188,30.667083740234375,-231.66131591796875,2023-10-26 02:30:08.0390,1698280208.038557,0.005628698971122503,0.021895715966820717,1.558801159262657e-05,0.023605123162269592,0.10882561653852463,-0.9978790283203125,
0,2023-10-26 02:30:00.1410,00:13,60,0,2023-10-26 02:30:04.6330,1698280204.633306,0.010832940228283405,-0.010365289635956287,0.0031161648221313953,-0.0003204345703125,-0.07061767578125,-1.00457763671875,-20.519577026367188,30.667083740234375,-231.66131591796875,2023-10-26 02:30:08.0690,1698280208.068548,0.009553399868309498,0.018771829083561897,0.0004306687042117119,0.030486837029457092,0.11068718135356903,-0.99481201171875,
0,2023-10-26 02:30:00.1410,00:13,60,0,2023-10-26 02:30:04.6500,1698280204.650103,0.006147108506411314,0.0013273194199427962,0.00022423815971706063,0.0011138916015625,-0.0724334716796875,-1.001556396484375,-20.4659423828125,30.647293090820312,-231.53536987304688,2023-10-26 02:30:08.0980,1698280208.098453,0.005950342398136854,-0.013896035961806774,-0.00028827833011746407,0.03361488878726959,0.10279839485883713,-0.9896087646484375,
0,2023-10-26 02:30:00.1410,00:13,60,0,2023-10-26 02:30:04.6670,1698280204.666719,0.005453621037304401,-0.004454403184354305,-4.6339002437889576e-05,-0.00042724609375,-0.0744476318359375,-1.0017547607421875,-20.622299194335938,30.721115112304688,-231.51901245117188,2023-10-26 02:30:08.1280,1698280208.1277242,-0.00526542728766799,-0.0064497049897909164,0.00026161130517721176,0.029678119346499443,0.11251823604106903,-0.990264892578125,
0,2023-10-26 02:30:00.1410,00:13,60,0,2023-10-26 02:30:04.6830,1698280204.683429,0.007706389296799898,-0.011433216743171215,0.0005014732014387846,-0.0015411376953125,-0.0720062255859375,-0.9980926513671875,-20.537826538085938,30.927001953125,-231.66822814941406,2023-10-26 02:30:08.1580,1698280208.15752,-0.0016168965958058834,-0.010660428553819656,-0.001163979060947895,0.027526631951332092,0.11146538704633713,-0.997833251953125,
0,2023-10-26 02:30:00.1410,00:13,60,0,2023-10-26 02:30:04.7000,1698280204.699769,0.007286408916115761,-0.0016255935188382864,-0.0029851372819393873,-0.0004730224609375,-0.07000732421875,-1.00286865234375,-20.501480102539062,30.656997680664062,-231.40264892578125,2023-10-26 02:30:08.1870,1698280208.1873388,0.005891220178455114,0.011348599568009377,0.00020834780298173428,0.026778947561979294,0.11996451765298843,-1.0018767714500427,
0,2023-10-26 02:30:00.1410,00:13,60,0,2023-10-26 02:30:04.7170,1698280204.716909,0.010430802591145039,-0.004205930046737194,-0.0017393104499205947,-0.0008544921875,-0.0710296630859375,-0.9982757568359375,-20.507614135742188,30.61151123046875,-231.44906616210938,2023-10-26 02:30:08.2170,1698280208.217122,-0.00240139733068645,-0.011159572750329971,0.001961080590263009,0.03094460256397724,0.10302726924419403,-0.991912841796875,
0,2023-10-26 02:30:00.1410,00:13,60,0,2023-10-26 02:30:04.7330,1698280204.733221,0.007137537933886051,-0.006001166999340057,0.0013542174128815532,-0.0008544921875,-0.0710296630859375,-0.9982757568359375,-20.507614135742188,30.61151123046875,-231.44906616210938,2023-10-26 02:30:08.2470,1698280208.247016,0.0003923253680113703,-0.004047133959829807,0.004927149973809719,0.026275411248207092,0.10968010872602463,-0.99481201171875,
0,2023-10-26 02:30:00.1410,00:13,60,0,2023-10-26 02:30:04.7500,1698280204.750153,0.009238239377737045,-0.007564442697912455,-0.00033103092573583126,-0.0012664794921875,-0.0708160400390625,-1.002227783203125,-20.511566162109375,30.656005859375,-231.88467407226562,2023-10-26 02:30:08.2770,1698280208.2766972,0.008439998142421246,0.021959831938147545,0.0027749959845095873,0.027374044060707092,0.11686699092388153,-1.00323486328125,
0,2023-10-26 02:30:00.1410,00:13,60,0,2023-10-26 02:30:04.7670,1698280204.76671,0.00839428324252367,-0.0027363980188965797,0.0008072041091509163,6.103515625e-05,-0.0704193115234375,-1.0013885498046875,-20.581771850585938,30.528778076171875,-231.79176330566406,2023-10-26 02:30:08.3070,1698280208.306706,0.010970867238938808,-0.002228660974651575,0.0023270524106919765,0.033431779593229294,0.10951226204633713,-0.995086669921875,
0,2023-10-26 02:30:00.1410,00:13,60,0,2023-10-26 02:30:04.7830,1698280204.783459,0.009093097411096096,-0.0035087147261947393,-0.002067678142338991,-0.0006256103515625,-0.0709381103515625,-0.9988861083984375,-20.533660888671875,30.489959716796875,-231.7135772705078,2023-10-26 02:30:08.3360,1698280208.3362741,-0.0021736302878707647,-0.035778965801000595,9.116879664361477e-05,0.029433980584144592,0.10510247945785522,-0.9938201904296875,
0,2023-10-26 02:30:00.1410,00:13,60,0,2023-10-26 02:30:04.8000,1698280204.799876,0.012032960541546345,-0.009243299253284931,6.524744821945205e-05,-0.0006256103515625,-0.0709381103515625,-0.9988861083984375,-20.557174682617188,30.7103271484375,-231.72315979003906,2023-10-26 02:30:08.3660,1698280208.366118,0.008443993516266346,0.014261964708566666,-0.0014575126115232706,0.023986592888832092,0.11303702741861343,-0.999542236328125,
